participant,date,expName,psychopyVersion,OS,frameRate,CorrectResponse,prac_prompt_1,prac_prompt_2,prac_prompt_3,prac_prompt_4,prac_prompt_5,prac_prompt_6,prac_prompt_7,prac_prompt_8,prac_prompt_9,prac_key_resp.keys,prac_key_resp.corr,prac_key_resp.rt,prac_key_resp.duration,prac_loop.thisRepN,prac_loop.thisTrialN,prac_loop.thisN,prac_loop.thisIndex,prac_loop.ran,object_class,object_category,corr_ans,prompt_1,prompt_2,prompt_3,prompt_4,prompt_5,prompt_6,prompt_7,prompt_8,prompt_9,key_resp.keys,key_resp.corr,key_resp.rt,key_resp.duration,response_label,response_animacy,corr_animacy,img_condition,test_loop.thisRepN,test_loop.thisTrialN,test_loop.thisN,test_loop.thisIndex,test_loop.ran,randomize_blocks.thisRepN,randomize_blocks.thisTrialN,randomize_blocks.thisN,randomize_blocks.thisIndex,randomize_blocks.ran,block_condition
5eb81d360943fe74d6aba62b,2025-08-20_15h25.30.412,GLINT,2024.2.4,Linux x86_64,59.88023952,,,,,,,,,,,,,,,,,,,,,,,,,,,,,,,,,,,,,,,,,,,,,,,,,,
5eb81d360943fe74d6aba62b,2025-08-20_15h25.30.412,GLINT,2024.2.4,Linux x86_64,59.88023952,,,,,,,,,,,,,,,,,,,,,,,,,,,,,,,,,,,,,,,,,,,,,,,,,,
5eb81d360943fe74d6aba62b,2025-08-20_15h25.30.412,GLINT,2024.2.4,Linux x86_64,59.88023952,,,,,,,,,,,,,,,,,,,,,,,,,,,,,,,,,,,,,,,,,,,,,,,,,,
5eb81d360943fe74d6aba62b,2025-08-20_15h25.30.412,GLINT,2024.2.4,Linux x86_64,59.88023952,7,chair,dog,leaf,flower,truck,hand,duck,bicycle,tree,7,1,2.7829,,0,0,0,1,1,duck,anim_natural,,,,,,,,,,,,,,,,,,,,,,,,,,,,,
5eb81d360943fe74d6aba62b,2025-08-20_15h25.30.412,GLINT,2024.2.4,Linux x86_64,59.88023952,7,hand,chair,dog,bicycle,truck,duck,tree,leaf,flower,8,0,3.8681,,0,1,1,4,1,tree,inanim_natural,,,,,,,,,,,,,,,,,,,,,,,,,,,,,
5eb81d360943fe74d6aba62b,2025-08-20_15h25.30.412,GLINT,2024.2.4,Linux x86_64,59.88023952,3,dog,tree,flower,hand,chair,bicycle,duck,leaf,truck,8,0,1.8132,,0,2,2,3,1,flower,inanim_natural,,,,,,,,,,,,,,,,,,,,,,,,,,,,,
5eb81d360943fe74d6aba62b,2025-08-20_15h25.30.412,GLINT,2024.2.4,Linux x86_64,59.88023952,3,flower,tree,hand,truck,leaf,bicycle,duck,chair,dog,3,1,2.0154,,0,3,3,0,1,hand,anim_natural,,,,,,,,,,,,,,,,,,,,,,,,,,,,,
5eb81d360943fe74d6aba62b,2025-08-20_15h25.30.412,GLINT,2024.2.4,Linux x86_64,59.88023952,2,tree,dog,chair,duck,leaf,hand,truck,flower,bicycle,2,1,1.1792,,0,4,4,2,1,dog,anim_natural,,,,,,,,,,,,,,,,,,,,,,,,,,,,,
5eb81d360943fe74d6aba62b,2025-08-20_15h25.30.412,GLINT,2024.2.4,Linux x86_64,59.88023952,,,,,,,,,,,,,,,,,,,,pineapple,inanim_natural,9,train,cow,airplane,bread,car,corn,cat,dog,pineapple,9,1,4.0955,,pineapple,inanim_natural,1,line_drawing,0,0,0,8,1,,,,,,
5eb81d360943fe74d6aba62b,2025-08-20_15h25.30.412,GLINT,2024.2.4,Linux x86_64,59.88023952,,,,,,,,,,,,,,,,,,,,apple,inanim_natural,4,butterfly,bread,cat,apple,binoculars,airplane,pineapple,dog,car,2,0,2.6657,,bread,inanim_natural,1,line_drawing,0,1,1,9,1,,,,,,
5eb81d360943fe74d6aba62b,2025-08-20_15h25.30.412,GLINT,2024.2.4,Linux x86_64,59.88023952,,,,,,,,,,,,,,,,,,,,cat,anim_natural,1,cat,mushroom,corn,airplane,lawnmower,bread,dog,cow,car,1,1,1.2137,,cat,anim_natural,1,line_drawing,0,2,2,2,1,,,,,,
5eb81d360943fe74d6aba62b,2025-08-20_15h25.30.412,GLINT,2024.2.4,Linux x86_64,59.88023952,,,,,,,,,,,,,,,,,,,,bread,inanim_natural,3,cow,avocado,bread,train,airplane,butterfly,dog,mushroom,house,3,1,1.1963,,bread,inanim_natural,1,line_drawing,0,3,3,6,1,,,,,,
5eb81d360943fe74d6aba62b,2025-08-20_15h25.30.412,GLINT,2024.2.4,Linux x86_64,59.88023952,,,,,,,,,,,,,,,,,,,,butterfly,anim_natural,7,cat,lawnmower,cow,bread,house,corn,butterfly,pineapple,train,7,1,1.5271,,butterfly,anim_natural,1,line_drawing,0,4,4,1,1,,,,,,
5eb81d360943fe74d6aba62b,2025-08-20_15h25.30.412,GLINT,2024.2.4,Linux x86_64,59.88023952,,,,,,,,,,,,,,,,,,,,snail,anim_natural,3,cow,corn,snail,car,airplane,train,avocado,dog,apple,3,1,2.8263,,snail,anim_natural,1,line_drawing,0,5,5,5,1,,,,,,
5eb81d360943fe74d6aba62b,2025-08-20_15h25.30.412,GLINT,2024.2.4,Linux x86_64,59.88023952,,,,,,,,,,,,,,,,,,,,lawnmower,inanim_artificial,3,airplane,mushroom,lawnmower,snail,pineapple,car,butterfly,corn,dog,3,1,1.5437,,lawnmower,inanim_artificial,1,line_drawing,0,6,6,16,1,,,,,,
5eb81d360943fe74d6aba62b,2025-08-20_15h25.30.412,GLINT,2024.2.4,Linux x86_64,59.88023952,,,,,,,,,,,,,,,,,,,,airplane,inanim_artificial,8,binoculars,avocado,train,cat,corn,bread,butterfly,airplane,snail,6,0,4.1679,,bread,inanim_natural,0,line_drawing,0,7,7,12,1,,,,,,
5eb81d360943fe74d6aba62b,2025-08-20_15h25.30.412,GLINT,2024.2.4,Linux x86_64,59.88023952,,,,,,,,,,,,,,,,,,,,corn,inanim_natural,1,corn,snail,car,cow,butterfly,train,pineapple,apple,house,1,1,3.7315,,corn,inanim_natural,1,line_drawing,0,8,8,10,1,,,,,,
5eb81d360943fe74d6aba62b,2025-08-20_15h25.30.412,GLINT,2024.2.4,Linux x86_64,59.88023952,,,,,,,,,,,,,,,,,,,,car,inanim_artificial,6,binoculars,avocado,mushroom,snail,apple,car,dog,train,cat,6,1,1.2601,,car,inanim_artificial,1,line_drawing,0,9,9,14,1,,,,,,
5eb81d360943fe74d6aba62b,2025-08-20_15h25.30.412,GLINT,2024.2.4,Linux x86_64,59.88023952,,,,,,,,,,,,,,,,,,,,train,inanim_artificial,8,lawnmower,house,avocado,pineapple,dog,bear,cat,train,mushroom,8,1,4.593,,train,inanim_artificial,1,line_drawing,0,10,10,17,1,,,,,,
5eb81d360943fe74d6aba62b,2025-08-20_15h25.30.412,GLINT,2024.2.4,Linux x86_64,59.88023952,,,,,,,,,,,,,,,,,,,,house,inanim_artificial,2,dog,house,snail,airplane,mushroom,pineapple,bread,lawnmower,cat,2,1,2.3481,,house,inanim_artificial,1,line_drawing,0,11,11,15,1,,,,,,
5eb81d360943fe74d6aba62b,2025-08-20_15h25.30.412,GLINT,2024.2.4,Linux x86_64,59.88023952,,,,,,,,,,,,,,,,,,,,avocado,inanim_natural,8,cat,bear,car,airplane,house,butterfly,bread,avocado,apple,8,1,2.7201,,avocado,inanim_natural,1,line_drawing,0,12,12,11,1,,,,,,
5eb81d360943fe74d6aba62b,2025-08-20_15h25.30.412,GLINT,2024.2.4,Linux x86_64,59.88023952,,,,,,,,,,,,,,,,,,,,bear,anim_natural,3,avocado,binoculars,bear,bread,cow,dog,house,lawnmower,corn,3,1,1.1512,,bear,anim_natural,1,line_drawing,0,13,13,0,1,,,,,,
5eb81d360943fe74d6aba62b,2025-08-20_15h25.30.412,GLINT,2024.2.4,Linux x86_64,59.88023952,,,,,,,,,,,,,,,,,,,,cow,anim_natural,3,dog,cat,cow,car,train,house,avocado,mushroom,apple,3,1,1.441,,cow,anim_natural,1,line_drawing,0,14,14,3,1,,,,,,
5eb81d360943fe74d6aba62b,2025-08-20_15h25.30.412,GLINT,2024.2.4,Linux x86_64,59.88023952,,,,,,,,,,,,,,,,,,,,mushroom,inanim_natural,2,dog,mushroom,pineapple,binoculars,bread,butterfly,lawnmower,snail,car,2,1,2.2907,,mushroom,inanim_natural,1,line_drawing,0,15,15,7,1,,,,,,
5eb81d360943fe74d6aba62b,2025-08-20_15h25.30.412,GLINT,2024.2.4,Linux x86_64,59.88023952,,,,,,,,,,,,,,,,,,,,dog,anim_natural,4,corn,airplane,mushroom,dog,apple,binoculars,butterfly,house,cow,4,1,4.1064,,dog,anim_natural,1,line_drawing,0,16,16,4,1,,,,,,
5eb81d360943fe74d6aba62b,2025-08-20_15h25.30.412,GLINT,2024.2.4,Linux x86_64,59.88023952,,,,,,,,,,,,,,,,,,,,binoculars,inanim_artificial,3,pineapple,corn,binoculars,apple,snail,airplane,cow,bear,lawnmower,3,1,1.0829,,binoculars,inanim_artificial,1,line_drawing,0,17,17,13,1,,,,,,
5eb81d360943fe74d6aba62b,2025-08-20_15h25.30.412,GLINT,2024.2.4,Linux x86_64,59.88023952,,,,,,,,,,,,,,,,,,,,butterfly,anim_natural,8,lawnmower,pineapple,train,apple,cow,snail,avocado,butterfly,house,8,1,1.6909,,butterfly,anim_natural,1,line_drawing,1,0,18,1,1,,,,,,
5eb81d360943fe74d6aba62b,2025-08-20_15h25.30.412,GLINT,2024.2.4,Linux x86_64,59.88023952,,,,,,,,,,,,,,,,,,,,cow,anim_natural,1,cow,snail,bread,house,mushroom,binoculars,dog,avocado,car,1,1,3.1598,,cow,anim_natural,1,line_drawing,1,1,19,3,1,,,,,,
5eb81d360943fe74d6aba62b,2025-08-20_15h25.30.412,GLINT,2024.2.4,Linux x86_64,59.88023952,,,,,,,,,,,,,,,,,,,,train,inanim_artificial,8,cow,apple,airplane,corn,mushroom,snail,bear,train,binoculars,8,1,4.3305,,train,inanim_artificial,1,line_drawing,1,2,20,17,1,,,,,,
5eb81d360943fe74d6aba62b,2025-08-20_15h25.30.412,GLINT,2024.2.4,Linux x86_64,59.88023952,,,,,,,,,,,,,,,,,,,,binoculars,inanim_artificial,8,avocado,lawnmower,dog,mushroom,pineapple,cat,cow,binoculars,house,8,1,1.7949,,binoculars,inanim_artificial,1,line_drawing,1,3,21,13,1,,,,,,
5eb81d360943fe74d6aba62b,2025-08-20_15h25.30.412,GLINT,2024.2.4,Linux x86_64,59.88023952,,,,,,,,,,,,,,,,,,,,bear,anim_natural,5,binoculars,pineapple,car,corn,bear,dog,bread,airplane,butterfly,5,1,1.7122,,bear,anim_natural,1,line_drawing,1,4,22,0,1,,,,,,
5eb81d360943fe74d6aba62b,2025-08-20_15h25.30.412,GLINT,2024.2.4,Linux x86_64,59.88023952,,,,,,,,,,,,,,,,,,,,pineapple,inanim_natural,1,pineapple,avocado,house,lawnmower,apple,dog,car,cat,bear,1,1,1.6465,,pineapple,inanim_natural,1,line_drawing,1,5,23,8,1,,,,,,
5eb81d360943fe74d6aba62b,2025-08-20_15h25.30.412,GLINT,2024.2.4,Linux x86_64,59.88023952,,,,,,,,,,,,,,,,,,,,car,inanim_artificial,5,avocado,airplane,train,cat,car,pineapple,cow,snail,mushroom,5,1,0.8457,,car,inanim_artificial,1,line_drawing,1,6,24,14,1,,,,,,
5eb81d360943fe74d6aba62b,2025-08-20_15h25.30.412,GLINT,2024.2.4,Linux x86_64,59.88023952,,,,,,,,,,,,,,,,,,,,airplane,inanim_artificial,5,cow,house,bear,corn,airplane,mushroom,avocado,snail,train,5,1,1.0118,,airplane,inanim_artificial,1,line_drawing,1,7,25,12,1,,,,,,
5eb81d360943fe74d6aba62b,2025-08-20_15h25.30.412,GLINT,2024.2.4,Linux x86_64,59.88023952,,,,,,,,,,,,,,,,,,,,bread,inanim_natural,9,airplane,house,snail,corn,car,dog,cat,mushroom,bread,9,1,3.5513,,bread,inanim_natural,1,line_drawing,1,8,26,6,1,,,,,,
5eb81d360943fe74d6aba62b,2025-08-20_15h25.30.412,GLINT,2024.2.4,Linux x86_64,59.88023952,,,,,,,,,,,,,,,,,,,,corn,inanim_natural,4,snail,bread,house,corn,cow,lawnmower,mushroom,butterfly,airplane,4,1,1.4581,,corn,inanim_natural,1,line_drawing,1,9,27,10,1,,,,,,
5eb81d360943fe74d6aba62b,2025-08-20_15h25.30.412,GLINT,2024.2.4,Linux x86_64,59.88023952,,,,,,,,,,,,,,,,,,,,house,inanim_artificial,1,house,mushroom,snail,corn,butterfly,cow,car,bread,binoculars,1,1,1.2505,,house,inanim_artificial,1,line_drawing,1,10,28,15,1,,,,,,
5eb81d360943fe74d6aba62b,2025-08-20_15h25.30.412,GLINT,2024.2.4,Linux x86_64,59.88023952,,,,,,,,,,,,,,,,,,,,apple,inanim_natural,5,train,cat,cow,bread,apple,airplane,snail,binoculars,corn,4,0,3.0544,,bread,inanim_natural,1,line_drawing,1,11,29,9,1,,,,,,
5eb81d360943fe74d6aba62b,2025-08-20_15h25.30.412,GLINT,2024.2.4,Linux x86_64,59.88023952,,,,,,,,,,,,,,,,,,,,mushroom,inanim_natural,9,airplane,binoculars,bread,train,bear,snail,cow,avocado,mushroom,9,1,1.858,,mushroom,inanim_natural,1,line_drawing,1,12,30,7,1,,,,,,
5eb81d360943fe74d6aba62b,2025-08-20_15h25.30.412,GLINT,2024.2.4,Linux x86_64,59.88023952,,,,,,,,,,,,,,,,,,,,lawnmower,inanim_artificial,6,cat,pineapple,airplane,corn,butterfly,lawnmower,dog,binoculars,bread,6,1,1.9757,,lawnmower,inanim_artificial,1,line_drawing,1,13,31,16,1,,,,,,
5eb81d360943fe74d6aba62b,2025-08-20_15h25.30.412,GLINT,2024.2.4,Linux x86_64,59.88023952,,,,,,,,,,,,,,,,,,,,cat,anim_natural,2,butterfly,cat,house,airplane,cow,train,mushroom,pineapple,bread,2,1,1.1438,,cat,anim_natural,1,line_drawing,1,14,32,2,1,,,,,,
5eb81d360943fe74d6aba62b,2025-08-20_15h25.30.412,GLINT,2024.2.4,Linux x86_64,59.88023952,,,,,,,,,,,,,,,,,,,,dog,anim_natural,3,mushroom,house,dog,cow,pineapple,bear,train,corn,binoculars,3,1,1.5835,,dog,anim_natural,1,line_drawing,1,15,33,4,1,,,,,,
5eb81d360943fe74d6aba62b,2025-08-20_15h25.30.412,GLINT,2024.2.4,Linux x86_64,59.88023952,,,,,,,,,,,,,,,,,,,,avocado,inanim_natural,3,butterfly,dog,avocado,cat,apple,car,corn,house,airplane,3,1,3.9651,,avocado,inanim_natural,1,line_drawing,1,16,34,11,1,,,,,,
5eb81d360943fe74d6aba62b,2025-08-20_15h25.30.412,GLINT,2024.2.4,Linux x86_64,59.88023952,,,,,,,,,,,,,,,,,,,,snail,anim_natural,6,airplane,bear,binoculars,car,cat,snail,avocado,apple,mushroom,6,1,2.162,,snail,anim_natural,1,line_drawing,1,17,35,5,1,,,,,,
5eb81d360943fe74d6aba62b,2025-08-20_15h25.30.412,GLINT,2024.2.4,Linux x86_64,59.88023952,,,,,,,,,,,,,,,,,,,,cat,anim_natural,2,mushroom,cat,house,dog,butterfly,airplane,pineapple,train,apple,2,1,0.7288,,cat,anim_natural,1,line_drawing,2,0,36,2,1,,,,,,
5eb81d360943fe74d6aba62b,2025-08-20_15h25.30.412,GLINT,2024.2.4,Linux x86_64,59.88023952,,,,,,,,,,,,,,,,,,,,butterfly,anim_natural,3,lawnmower,dog,butterfly,snail,mushroom,apple,corn,train,house,3,1,0.9322,,butterfly,anim_natural,1,line_drawing,2,1,37,1,1,,,,,,
5eb81d360943fe74d6aba62b,2025-08-20_15h25.30.412,GLINT,2024.2.4,Linux x86_64,59.88023952,,,,,,,,,,,,,,,,,,,,dog,anim_natural,7,snail,pineapple,cow,lawnmower,car,bread,dog,train,corn,7,1,2.025,,dog,anim_natural,1,line_drawing,2,2,38,4,1,,,,,,
5eb81d360943fe74d6aba62b,2025-08-20_15h25.30.412,GLINT,2024.2.4,Linux x86_64,59.88023952,,,,,,,,,,,,,,,,,,,,bear,anim_natural,1,bear,airplane,cow,bread,train,binoculars,apple,cat,corn,8,0,1.683,,cat,anim_natural,1,line_drawing,2,3,39,0,1,,,,,,
5eb81d360943fe74d6aba62b,2025-08-20_15h25.30.412,GLINT,2024.2.4,Linux x86_64,59.88023952,,,,,,,,,,,,,,,,,,,,airplane,inanim_artificial,7,train,apple,binoculars,cow,pineapple,cat,airplane,corn,butterfly,7,1,2.6357,,airplane,inanim_artificial,1,line_drawing,2,4,40,12,1,,,,,,
5eb81d360943fe74d6aba62b,2025-08-20_15h25.30.412,GLINT,2024.2.4,Linux x86_64,59.88023952,,,,,,,,,,,,,,,,,,,,snail,anim_natural,9,house,avocado,cow,apple,car,corn,dog,binoculars,snail,9,1,2.7936,,snail,anim_natural,1,line_drawing,2,5,41,5,1,,,,,,
5eb81d360943fe74d6aba62b,2025-08-20_15h25.30.412,GLINT,2024.2.4,Linux x86_64,59.88023952,,,,,,,,,,,,,,,,,,,,car,inanim_artificial,5,snail,pineapple,bread,airplane,car,cat,cow,avocado,house,5,1,0.8817,,car,inanim_artificial,1,line_drawing,2,6,42,14,1,,,,,,
5eb81d360943fe74d6aba62b,2025-08-20_15h25.30.412,GLINT,2024.2.4,Linux x86_64,59.88023952,,,,,,,,,,,,,,,,,,,,mushroom,inanim_natural,9,cat,apple,train,pineapple,butterfly,airplane,binoculars,bear,mushroom,9,1,2.0792,,mushroom,inanim_natural,1,line_drawing,2,7,43,7,1,,,,,,
5eb81d360943fe74d6aba62b,2025-08-20_15h25.30.412,GLINT,2024.2.4,Linux x86_64,59.88023952,,,,,,,,,,,,,,,,,,,,pineapple,inanim_natural,4,cat,bread,airplane,pineapple,dog,cow,binoculars,house,apple,4,1,1.3168,,pineapple,inanim_natural,1,line_drawing,2,8,44,8,1,,,,,,
5eb81d360943fe74d6aba62b,2025-08-20_15h25.30.412,GLINT,2024.2.4,Linux x86_64,59.88023952,,,,,,,,,,,,,,,,,,,,lawnmower,inanim_artificial,2,dog,lawnmower,butterfly,binoculars,bread,train,cat,pineapple,corn,2,1,1.1786,,lawnmower,inanim_artificial,1,line_drawing,2,9,45,16,1,,,,,,
5eb81d360943fe74d6aba62b,2025-08-20_15h25.30.412,GLINT,2024.2.4,Linux x86_64,59.88023952,,,,,,,,,,,,,,,,,,,,apple,inanim_natural,6,lawnmower,binoculars,train,cat,corn,apple,bear,cow,pineapple,6,1,4.661,,apple,inanim_natural,1,line_drawing,2,10,46,9,1,,,,,,
5eb81d360943fe74d6aba62b,2025-08-20_15h25.30.412,GLINT,2024.2.4,Linux x86_64,59.88023952,,,,,,,,,,,,,,,,,,,,house,inanim_artificial,5,train,car,dog,butterfly,house,bread,cow,corn,apple,5,1,1.1207,,house,inanim_artificial,1,line_drawing,2,11,47,15,1,,,,,,
5eb81d360943fe74d6aba62b,2025-08-20_15h25.30.412,GLINT,2024.2.4,Linux x86_64,59.88023952,,,,,,,,,,,,,,,,,,,,avocado,inanim_natural,1,avocado,corn,binoculars,cat,lawnmower,snail,house,bear,pineapple,1,1,2.2129,,avocado,inanim_natural,1,line_drawing,2,12,48,11,1,,,,,,
5eb81d360943fe74d6aba62b,2025-08-20_15h25.30.412,GLINT,2024.2.4,Linux x86_64,59.88023952,,,,,,,,,,,,,,,,,,,,bread,inanim_natural,9,dog,bear,train,corn,house,apple,snail,binoculars,bread,,0,,,no response,no response,0,line_drawing,2,13,49,6,1,,,,,,
5eb81d360943fe74d6aba62b,2025-08-20_15h25.30.412,GLINT,2024.2.4,Linux x86_64,59.88023952,,,,,,,,,,,,,,,,,,,,train,inanim_artificial,1,train,cow,bread,airplane,apple,snail,avocado,car,bear,8,0,3.2681,,car,inanim_artificial,1,line_drawing,2,14,50,17,1,,,,,,
5eb81d360943fe74d6aba62b,2025-08-20_15h25.30.412,GLINT,2024.2.4,Linux x86_64,59.88023952,,,,,,,,,,,,,,,,,,,,corn,inanim_natural,4,cow,dog,avocado,corn,airplane,train,lawnmower,butterfly,bread,4,1,1.66,,corn,inanim_natural,1,line_drawing,2,15,51,10,1,,,,,,
5eb81d360943fe74d6aba62b,2025-08-20_15h25.30.412,GLINT,2024.2.4,Linux x86_64,59.88023952,,,,,,,,,,,,,,,,,,,,cow,anim_natural,3,house,bear,cow,mushroom,butterfly,airplane,train,avocado,corn,3,1,1.1385,,cow,anim_natural,1,line_drawing,2,16,52,3,1,,,,,,
5eb81d360943fe74d6aba62b,2025-08-20_15h25.30.412,GLINT,2024.2.4,Linux x86_64,59.88023952,,,,,,,,,,,,,,,,,,,,binoculars,inanim_artificial,8,snail,corn,cat,butterfly,pineapple,avocado,airplane,binoculars,lawnmower,8,1,1.4533,,binoculars,inanim_artificial,1,line_drawing,2,17,53,13,1,,,,,,
5eb81d360943fe74d6aba62b,2025-08-20_15h25.30.412,GLINT,2024.2.4,Linux x86_64,59.88023952,,,,,,,,,,,,,,,,,,,,avocado,inanim_natural,4,snail,cow,corn,avocado,bread,bear,train,airplane,car,1,0,2.1675,,snail,anim_natural,0,line_drawing,3,0,54,11,1,,,,,,
5eb81d360943fe74d6aba62b,2025-08-20_15h25.30.412,GLINT,2024.2.4,Linux x86_64,59.88023952,,,,,,,,,,,,,,,,,,,,dog,anim_natural,3,lawnmower,train,dog,butterfly,cow,apple,mushroom,car,pineapple,3,1,1.1441,,dog,anim_natural,1,line_drawing,3,1,55,4,1,,,,,,
5eb81d360943fe74d6aba62b,2025-08-20_15h25.30.412,GLINT,2024.2.4,Linux x86_64,59.88023952,,,,,,,,,,,,,,,,,,,,house,inanim_artificial,3,binoculars,bread,house,apple,snail,mushroom,cat,car,dog,3,1,2.6875,,house,inanim_artificial,1,line_drawing,3,2,56,15,1,,,,,,
5eb81d360943fe74d6aba62b,2025-08-20_15h25.30.412,GLINT,2024.2.4,Linux x86_64,59.88023952,,,,,,,,,,,,,,,,,,,,corn,inanim_natural,2,butterfly,corn,binoculars,airplane,bear,apple,pineapple,cow,train,2,1,0.9151,,corn,inanim_natural,1,line_drawing,3,3,57,10,1,,,,,,
5eb81d360943fe74d6aba62b,2025-08-20_15h25.30.412,GLINT,2024.2.4,Linux x86_64,59.88023952,,,,,,,,,,,,,,,,,,,,train,inanim_artificial,7,avocado,car,bear,binoculars,cat,butterfly,train,bread,mushroom,7,1,1.4879,,train,inanim_artificial,1,line_drawing,3,4,58,17,1,,,,,,
5eb81d360943fe74d6aba62b,2025-08-20_15h25.30.412,GLINT,2024.2.4,Linux x86_64,59.88023952,,,,,,,,,,,,,,,,,,,,car,inanim_artificial,8,lawnmower,cat,snail,cow,bread,house,corn,car,mushroom,8,1,2.0813,,car,inanim_artificial,1,line_drawing,3,5,59,14,1,,,,,,
5eb81d360943fe74d6aba62b,2025-08-20_15h25.30.412,GLINT,2024.2.4,Linux x86_64,59.88023952,,,,,,,,,,,,,,,,,,,,bread,inanim_natural,5,butterfly,snail,cow,mushroom,bread,train,airplane,car,pineapple,5,1,0.8751,,bread,inanim_natural,1,line_drawing,3,6,60,6,1,,,,,,
5eb81d360943fe74d6aba62b,2025-08-20_15h25.30.412,GLINT,2024.2.4,Linux x86_64,59.88023952,,,,,,,,,,,,,,,,,,,,cow,anim_natural,4,apple,corn,cat,cow,binoculars,house,butterfly,airplane,bread,4,1,2.5514,,cow,anim_natural,1,line_drawing,3,7,61,3,1,,,,,,
5eb81d360943fe74d6aba62b,2025-08-20_15h25.30.412,GLINT,2024.2.4,Linux x86_64,59.88023952,,,,,,,,,,,,,,,,,,,,airplane,inanim_artificial,7,pineapple,cow,dog,binoculars,lawnmower,bread,airplane,butterfly,corn,7,1,1.8995,,airplane,inanim_artificial,1,line_drawing,3,8,62,12,1,,,,,,
5eb81d360943fe74d6aba62b,2025-08-20_15h25.30.412,GLINT,2024.2.4,Linux x86_64,59.88023952,,,,,,,,,,,,,,,,,,,,bear,anim_natural,6,binoculars,cow,butterfly,mushroom,airplane,bear,corn,apple,train,6,1,1.7209,,bear,anim_natural,1,line_drawing,3,9,63,0,1,,,,,,
5eb81d360943fe74d6aba62b,2025-08-20_15h25.30.412,GLINT,2024.2.4,Linux x86_64,59.88023952,,,,,,,,,,,,,,,,,,,,snail,anim_natural,1,snail,dog,bread,binoculars,cow,car,lawnmower,apple,pineapple,1,1,2.1521,,snail,anim_natural,1,line_drawing,3,10,64,5,1,,,,,,
5eb81d360943fe74d6aba62b,2025-08-20_15h25.30.412,GLINT,2024.2.4,Linux x86_64,59.88023952,,,,,,,,,,,,,,,,,,,,lawnmower,inanim_artificial,9,dog,car,snail,apple,avocado,airplane,corn,cow,lawnmower,9,1,1.426,,lawnmower,inanim_artificial,1,line_drawing,3,11,65,16,1,,,,,,
5eb81d360943fe74d6aba62b,2025-08-20_15h25.30.412,GLINT,2024.2.4,Linux x86_64,59.88023952,,,,,,,,,,,,,,,,,,,,pineapple,inanim_natural,5,butterfly,cow,car,bread,pineapple,bear,airplane,house,avocado,5,1,1.0008,,pineapple,inanim_natural,1,line_drawing,3,12,66,8,1,,,,,,
5eb81d360943fe74d6aba62b,2025-08-20_15h25.30.412,GLINT,2024.2.4,Linux x86_64,59.88023952,,,,,,,,,,,,,,,,,,,,apple,inanim_natural,4,pineapple,mushroom,butterfly,apple,house,lawnmower,bear,airplane,snail,4,1,1.4288,,apple,inanim_natural,1,line_drawing,3,13,67,9,1,,,,,,
5eb81d360943fe74d6aba62b,2025-08-20_15h25.30.412,GLINT,2024.2.4,Linux x86_64,59.88023952,,,,,,,,,,,,,,,,,,,,cat,anim_natural,7,bread,mushroom,lawnmower,dog,car,binoculars,cat,corn,bear,7,1,1.8998,,cat,anim_natural,1,line_drawing,3,14,68,2,1,,,,,,
5eb81d360943fe74d6aba62b,2025-08-20_15h25.30.412,GLINT,2024.2.4,Linux x86_64,59.88023952,,,,,,,,,,,,,,,,,,,,binoculars,inanim_artificial,7,train,cat,lawnmower,pineapple,avocado,cow,binoculars,snail,mushroom,7,1,1.4373,,binoculars,inanim_artificial,1,line_drawing,3,15,69,13,1,,,,,,
5eb81d360943fe74d6aba62b,2025-08-20_15h25.30.412,GLINT,2024.2.4,Linux x86_64,59.88023952,,,,,,,,,,,,,,,,,,,,mushroom,inanim_natural,7,snail,cat,cow,house,car,avocado,mushroom,corn,lawnmower,7,1,1.6908,,mushroom,inanim_natural,1,line_drawing,3,16,70,7,1,,,,,,
5eb81d360943fe74d6aba62b,2025-08-20_15h25.30.412,GLINT,2024.2.4,Linux x86_64,59.88023952,,,,,,,,,,,,,,,,,,,,butterfly,anim_natural,4,lawnmower,avocado,mushroom,butterfly,corn,dog,airplane,binoculars,snail,4,1,1.445,,butterfly,anim_natural,1,line_drawing,3,17,71,1,1,,,,,,
5eb81d360943fe74d6aba62b,2025-08-20_15h25.30.412,GLINT,2024.2.4,Linux x86_64,59.88023952,,,,,,,,,,,,,,,,,,,,,,,,,,,,,,,,,,,,,,,,,,,,,0,0,0,1,1,line_drawing
5eb81d360943fe74d6aba62b,2025-08-20_15h25.30.412,GLINT,2024.2.4,Linux x86_64,59.88023952,,,,,,,,,,,,,,,,,,,,corn,inanim_natural,6,train,binoculars,cat,butterfly,snail,corn,pineapple,apple,car,6,1,2.0872,,corn,inanim_natural,1,natural,0,0,0,10,1,,,,,,
5eb81d360943fe74d6aba62b,2025-08-20_15h25.30.412,GLINT,2024.2.4,Linux x86_64,59.88023952,,,,,,,,,,,,,,,,,,,,pineapple,inanim_natural,6,apple,airplane,butterfly,cow,car,pineapple,bread,bear,train,6,1,1.5378,,pineapple,inanim_natural,1,natural,0,1,1,8,1,,,,,,
5eb81d360943fe74d6aba62b,2025-08-20_15h25.30.412,GLINT,2024.2.4,Linux x86_64,59.88023952,,,,,,,,,,,,,,,,,,,,snail,anim_natural,4,apple,bread,train,snail,butterfly,dog,binoculars,car,avocado,4,1,2.5225,,snail,anim_natural,1,natural,0,2,2,5,1,,,,,,
5eb81d360943fe74d6aba62b,2025-08-20_15h25.30.412,GLINT,2024.2.4,Linux x86_64,59.88023952,,,,,,,,,,,,,,,,,,,,binoculars,inanim_artificial,6,bear,dog,airplane,house,bread,binoculars,pineapple,avocado,snail,6,1,1.7386,,binoculars,inanim_artificial,1,natural,0,3,3,13,1,,,,,,
5eb81d360943fe74d6aba62b,2025-08-20_15h25.30.412,GLINT,2024.2.4,Linux x86_64,59.88023952,,,,,,,,,,,,,,,,,,,,cat,anim_natural,5,bear,bread,house,car,cat,train,mushroom,apple,snail,5,1,0.7662,,cat,anim_natural,1,natural,0,4,4,2,1,,,,,,
5eb81d360943fe74d6aba62b,2025-08-20_15h25.30.412,GLINT,2024.2.4,Linux x86_64,59.88023952,,,,,,,,,,,,,,,,,,,,mushroom,inanim_natural,7,bread,avocado,dog,butterfly,train,cow,mushroom,binoculars,car,7,1,1.9301,,mushroom,inanim_natural,1,natural,0,5,5,7,1,,,,,,
5eb81d360943fe74d6aba62b,2025-08-20_15h25.30.412,GLINT,2024.2.4,Linux x86_64,59.88023952,,,,,,,,,,,,,,,,,,,,butterfly,anim_natural,6,avocado,apple,corn,dog,car,butterfly,binoculars,airplane,cat,6,1,1.501,,butterfly,anim_natural,1,natural,0,6,6,1,1,,,,,,
5eb81d360943fe74d6aba62b,2025-08-20_15h25.30.412,GLINT,2024.2.4,Linux x86_64,59.88023952,,,,,,,,,,,,,,,,,,,,house,inanim_artificial,3,lawnmower,train,house,corn,avocado,cat,butterfly,dog,bread,3,1,1.1196,,house,inanim_artificial,1,natural,0,7,7,15,1,,,,,,
5eb81d360943fe74d6aba62b,2025-08-20_15h25.30.412,GLINT,2024.2.4,Linux x86_64,59.88023952,,,,,,,,,,,,,,,,,,,,apple,inanim_natural,2,cat,apple,butterfly,house,airplane,bread,avocado,binoculars,bear,2,1,1.1296,,apple,inanim_natural,1,natural,0,8,8,9,1,,,,,,
5eb81d360943fe74d6aba62b,2025-08-20_15h25.30.412,GLINT,2024.2.4,Linux x86_64,59.88023952,,,,,,,,,,,,,,,,,,,,train,inanim_artificial,3,snail,mushroom,train,car,cow,avocado,house,butterfly,bread,3,1,1.4787,,train,inanim_artificial,1,natural,0,9,9,17,1,,,,,,
5eb81d360943fe74d6aba62b,2025-08-20_15h25.30.412,GLINT,2024.2.4,Linux x86_64,59.88023952,,,,,,,,,,,,,,,,,,,,dog,anim_natural,9,apple,corn,snail,train,butterfly,bread,house,airplane,dog,9,1,1.7622,,dog,anim_natural,1,natural,0,10,10,4,1,,,,,,
5eb81d360943fe74d6aba62b,2025-08-20_15h25.30.412,GLINT,2024.2.4,Linux x86_64,59.88023952,,,,,,,,,,,,,,,,,,,,car,inanim_artificial,7,cat,cow,avocado,house,dog,binoculars,car,corn,mushroom,7,1,1.9023,,car,inanim_artificial,1,natural,0,11,11,14,1,,,,,,
5eb81d360943fe74d6aba62b,2025-08-20_15h25.30.412,GLINT,2024.2.4,Linux x86_64,59.88023952,,,,,,,,,,,,,,,,,,,,avocado,inanim_natural,8,cat,lawnmower,butterfly,train,corn,pineapple,airplane,avocado,snail,8,1,3.8896,,avocado,inanim_natural,1,natural,0,12,12,11,1,,,,,,
5eb81d360943fe74d6aba62b,2025-08-20_15h25.30.412,GLINT,2024.2.4,Linux x86_64,59.88023952,,,,,,,,,,,,,,,,,,,,lawnmower,inanim_artificial,3,binoculars,snail,lawnmower,bear,corn,car,butterfly,pineapple,avocado,3,1,0.9861,,lawnmower,inanim_artificial,1,natural,0,13,13,16,1,,,,,,
5eb81d360943fe74d6aba62b,2025-08-20_15h25.30.412,GLINT,2024.2.4,Linux x86_64,59.88023952,,,,,,,,,,,,,,,,,,,,bread,inanim_natural,8,apple,house,avocado,binoculars,airplane,cow,bear,bread,snail,8,1,1.813,,bread,inanim_natural,1,natural,0,14,14,6,1,,,,,,
5eb81d360943fe74d6aba62b,2025-08-20_15h25.30.412,GLINT,2024.2.4,Linux x86_64,59.88023952,,,,,,,,,,,,,,,,,,,,cow,anim_natural,3,corn,house,cow,dog,pineapple,train,avocado,car,bear,3,1,1.0369,,cow,anim_natural,1,natural,0,15,15,3,1,,,,,,
5eb81d360943fe74d6aba62b,2025-08-20_15h25.30.412,GLINT,2024.2.4,Linux x86_64,59.88023952,,,,,,,,,,,,,,,,,,,,airplane,inanim_artificial,9,dog,car,snail,avocado,apple,house,pineapple,cow,airplane,9,1,1.7864,,airplane,inanim_artificial,1,natural,0,16,16,12,1,,,,,,
5eb81d360943fe74d6aba62b,2025-08-20_15h25.30.412,GLINT,2024.2.4,Linux x86_64,59.88023952,,,,,,,,,,,,,,,,,,,,bear,anim_natural,7,binoculars,apple,butterfly,dog,pineapple,house,bear,lawnmower,corn,7,1,2.0652,,bear,anim_natural,1,natural,0,17,17,0,1,,,,,,
5eb81d360943fe74d6aba62b,2025-08-20_15h25.30.412,GLINT,2024.2.4,Linux x86_64,59.88023952,,,,,,,,,,,,,,,,,,,,butterfly,anim_natural,1,butterfly,lawnmower,cow,train,bread,corn,car,dog,avocado,1,1,1.0793,,butterfly,anim_natural,1,natural,1,0,18,1,1,,,,,,
5eb81d360943fe74d6aba62b,2025-08-20_15h25.30.412,GLINT,2024.2.4,Linux x86_64,59.88023952,,,,,,,,,,,,,,,,,,,,avocado,inanim_natural,3,corn,train,avocado,pineapple,lawnmower,binoculars,snail,cat,cow,3,1,1.7059,,avocado,inanim_natural,1,natural,1,1,19,11,1,,,,,,
5eb81d360943fe74d6aba62b,2025-08-20_15h25.30.412,GLINT,2024.2.4,Linux x86_64,59.88023952,,,,,,,,,,,,,,,,,,,,house,inanim_artificial,7,butterfly,mushroom,bear,avocado,binoculars,dog,house,apple,car,7,1,1.7397,,house,inanim_artificial,1,natural,1,2,20,15,1,,,,,,
5eb81d360943fe74d6aba62b,2025-08-20_15h25.30.412,GLINT,2024.2.4,Linux x86_64,59.88023952,,,,,,,,,,,,,,,,,,,,train,inanim_artificial,4,house,pineapple,dog,train,mushroom,apple,car,cat,cow,4,1,1.0366,,train,inanim_artificial,1,natural,1,3,21,17,1,,,,,,
5eb81d360943fe74d6aba62b,2025-08-20_15h25.30.412,GLINT,2024.2.4,Linux x86_64,59.88023952,,,,,,,,,,,,,,,,,,,,mushroom,inanim_natural,9,dog,airplane,cow,avocado,binoculars,snail,corn,car,mushroom,9,1,1.153,,mushroom,inanim_natural,1,natural,1,4,22,7,1,,,,,,
5eb81d360943fe74d6aba62b,2025-08-20_15h25.30.412,GLINT,2024.2.4,Linux x86_64,59.88023952,,,,,,,,,,,,,,,,,,,,binoculars,inanim_artificial,1,binoculars,airplane,apple,snail,mushroom,cow,bread,dog,car,1,1,0.997,,binoculars,inanim_artificial,1,natural,1,5,23,13,1,,,,,,
5eb81d360943fe74d6aba62b,2025-08-20_15h25.30.412,GLINT,2024.2.4,Linux x86_64,59.88023952,,,,,,,,,,,,,,,,,,,,snail,anim_natural,4,binoculars,bear,mushroom,snail,lawnmower,bread,cow,house,corn,4,1,2.2133,,snail,anim_natural,1,natural,1,6,24,5,1,,,,,,
5eb81d360943fe74d6aba62b,2025-08-20_15h25.30.412,GLINT,2024.2.4,Linux x86_64,59.88023952,,,,,,,,,,,,,,,,,,,,airplane,inanim_artificial,5,cat,house,pineapple,car,airplane,dog,bread,bear,corn,5,1,1.1827,,airplane,inanim_artificial,1,natural,1,7,25,12,1,,,,,,
5eb81d360943fe74d6aba62b,2025-08-20_15h25.30.412,GLINT,2024.2.4,Linux x86_64,59.88023952,,,,,,,,,,,,,,,,,,,,cow,anim_natural,2,butterfly,cow,lawnmower,bear,car,corn,apple,house,pineapple,2,1,1.028,,cow,anim_natural,1,natural,1,8,26,3,1,,,,,,
5eb81d360943fe74d6aba62b,2025-08-20_15h25.30.412,GLINT,2024.2.4,Linux x86_64,59.88023952,,,,,,,,,,,,,,,,,,,,dog,anim_natural,4,lawnmower,bread,pineapple,dog,binoculars,apple,house,butterfly,bear,4,1,0.8654,,dog,anim_natural,1,natural,1,9,27,4,1,,,,,,
5eb81d360943fe74d6aba62b,2025-08-20_15h25.30.412,GLINT,2024.2.4,Linux x86_64,59.88023952,,,,,,,,,,,,,,,,,,,,pineapple,inanim_natural,4,car,avocado,cat,pineapple,bear,house,apple,dog,airplane,4,1,1.2472,,pineapple,inanim_natural,1,natural,1,10,28,8,1,,,,,,
5eb81d360943fe74d6aba62b,2025-08-20_15h25.30.412,GLINT,2024.2.4,Linux x86_64,59.88023952,,,,,,,,,,,,,,,,,,,,car,inanim_artificial,3,apple,cow,car,mushroom,lawnmower,dog,airplane,snail,bread,3,1,1.053,,car,inanim_artificial,1,natural,1,11,29,14,1,,,,,,
5eb81d360943fe74d6aba62b,2025-08-20_15h25.30.412,GLINT,2024.2.4,Linux x86_64,59.88023952,,,,,,,,,,,,,,,,,,,,apple,inanim_natural,8,airplane,cat,bear,dog,bread,binoculars,avocado,apple,train,8,1,2.0736,,apple,inanim_natural,1,natural,1,12,30,9,1,,,,,,
5eb81d360943fe74d6aba62b,2025-08-20_15h25.30.412,GLINT,2024.2.4,Linux x86_64,59.88023952,,,,,,,,,,,,,,,,,,,,corn,inanim_natural,8,train,car,bread,pineapple,dog,airplane,cow,corn,snail,8,1,2.1724,,corn,inanim_natural,1,natural,1,13,31,10,1,,,,,,
5eb81d360943fe74d6aba62b,2025-08-20_15h25.30.412,GLINT,2024.2.4,Linux x86_64,59.88023952,,,,,,,,,,,,,,,,,,,,bear,anim_natural,4,mushroom,dog,airplane,bear,avocado,binoculars,train,snail,pineapple,4,1,1.9442,,bear,anim_natural,1,natural,1,14,32,0,1,,,,,,
5eb81d360943fe74d6aba62b,2025-08-20_15h25.30.412,GLINT,2024.2.4,Linux x86_64,59.88023952,,,,,,,,,,,,,,,,,,,,lawnmower,inanim_artificial,9,mushroom,bread,dog,snail,avocado,train,airplane,butterfly,lawnmower,9,1,1.1724,,lawnmower,inanim_artificial,1,natural,1,15,33,16,1,,,,,,
5eb81d360943fe74d6aba62b,2025-08-20_15h25.30.412,GLINT,2024.2.4,Linux x86_64,59.88023952,,,,,,,,,,,,,,,,,,,,bread,inanim_natural,4,airplane,mushroom,apple,bread,house,snail,car,bear,dog,4,1,1.4025,,bread,inanim_natural,1,natural,1,16,34,6,1,,,,,,
5eb81d360943fe74d6aba62b,2025-08-20_15h25.30.412,GLINT,2024.2.4,Linux x86_64,59.88023952,,,,,,,,,,,,,,,,,,,,cat,anim_natural,2,avocado,cat,pineapple,lawnmower,airplane,mushroom,train,cow,butterfly,2,1,0.8971,,cat,anim_natural,1,natural,1,17,35,2,1,,,,,,
5eb81d360943fe74d6aba62b,2025-08-20_15h25.30.412,GLINT,2024.2.4,Linux x86_64,59.88023952,,,,,,,,,,,,,,,,,,,,butterfly,anim_natural,8,dog,house,bear,corn,airplane,binoculars,apple,butterfly,bread,8,1,1.4969,,butterfly,anim_natural,1,natural,2,0,36,1,1,,,,,,
5eb81d360943fe74d6aba62b,2025-08-20_15h25.30.412,GLINT,2024.2.4,Linux x86_64,59.88023952,,,,,,,,,,,,,,,,,,,,house,inanim_artificial,6,cat,pineapple,lawnmower,bear,apple,house,train,corn,cow,6,1,1.7352,,house,inanim_artificial,1,natural,2,1,37,15,1,,,,,,
5eb81d360943fe74d6aba62b,2025-08-20_15h25.30.412,GLINT,2024.2.4,Linux x86_64,59.88023952,,,,,,,,,,,,,,,,,,,,airplane,inanim_artificial,9,cow,apple,binoculars,bread,car,cat,mushroom,snail,airplane,9,1,1.9205,,airplane,inanim_artificial,1,natural,2,2,38,12,1,,,,,,
5eb81d360943fe74d6aba62b,2025-08-20_15h25.30.412,GLINT,2024.2.4,Linux x86_64,59.88023952,,,,,,,,,,,,,,,,,,,,cow,anim_natural,6,avocado,bread,cat,lawnmower,airplane,cow,pineapple,bear,train,6,1,1.446,,cow,anim_natural,1,natural,2,3,39,3,1,,,,,,
5eb81d360943fe74d6aba62b,2025-08-20_15h25.30.412,GLINT,2024.2.4,Linux x86_64,59.88023952,,,,,,,,,,,,,,,,,,,,cat,anim_natural,8,snail,butterfly,lawnmower,pineapple,car,binoculars,apple,cat,mushroom,8,1,1.73,,cat,anim_natural,1,natural,2,4,40,2,1,,,,,,
5eb81d360943fe74d6aba62b,2025-08-20_15h25.30.412,GLINT,2024.2.4,Linux x86_64,59.88023952,,,,,,,,,,,,,,,,,,,,binoculars,inanim_artificial,3,pineapple,dog,binoculars,corn,mushroom,lawnmower,cat,airplane,snail,3,1,1.1863,,binoculars,inanim_artificial,1,natural,2,5,41,13,1,,,,,,
5eb81d360943fe74d6aba62b,2025-08-20_15h25.30.412,GLINT,2024.2.4,Linux x86_64,59.88023952,,,,,,,,,,,,,,,,,,,,lawnmower,inanim_artificial,1,lawnmower,snail,binoculars,airplane,mushroom,bear,avocado,cat,pineapple,1,1,1.4155,,lawnmower,inanim_artificial,1,natural,2,6,42,16,1,,,,,,
5eb81d360943fe74d6aba62b,2025-08-20_15h25.30.412,GLINT,2024.2.4,Linux x86_64,59.88023952,,,,,,,,,,,,,,,,,,,,car,inanim_artificial,4,house,bread,avocado,car,cat,butterfly,lawnmower,cow,mushroom,4,1,1.1129,,car,inanim_artificial,1,natural,2,7,43,14,1,,,,,,
5eb81d360943fe74d6aba62b,2025-08-20_15h25.30.412,GLINT,2024.2.4,Linux x86_64,59.88023952,,,,,,,,,,,,,,,,,,,,avocado,inanim_natural,1,avocado,bear,butterfly,train,bread,cat,house,mushroom,binoculars,1,1,2.2974,,avocado,inanim_natural,1,natural,2,8,44,11,1,,,,,,
5eb81d360943fe74d6aba62b,2025-08-20_15h25.30.412,GLINT,2024.2.4,Linux x86_64,59.88023952,,,,,,,,,,,,,,,,,,,,snail,anim_natural,7,car,corn,butterfly,mushroom,train,avocado,snail,dog,airplane,7,1,1.6801,,snail,anim_natural,1,natural,2,9,45,5,1,,,,,,
5eb81d360943fe74d6aba62b,2025-08-20_15h25.30.412,GLINT,2024.2.4,Linux x86_64,59.88023952,,,,,,,,,,,,,,,,,,,,bear,anim_natural,2,car,bear,bread,corn,cat,house,train,snail,avocado,2,1,0.8466,,bear,anim_natural,1,natural,2,10,46,0,1,,,,,,
5eb81d360943fe74d6aba62b,2025-08-20_15h25.30.412,GLINT,2024.2.4,Linux x86_64,59.88023952,,,,,,,,,,,,,,,,,,,,pineapple,inanim_natural,4,bread,snail,bear,pineapple,dog,apple,house,train,car,4,1,0.9453,,pineapple,inanim_natural,1,natural,2,11,47,8,1,,,,,,
5eb81d360943fe74d6aba62b,2025-08-20_15h25.30.412,GLINT,2024.2.4,Linux x86_64,59.88023952,,,,,,,,,,,,,,,,,,,,dog,anim_natural,9,snail,house,pineapple,cow,car,airplane,apple,bread,dog,9,1,1.429,,dog,anim_natural,1,natural,2,12,48,4,1,,,,,,
5eb81d360943fe74d6aba62b,2025-08-20_15h25.30.412,GLINT,2024.2.4,Linux x86_64,59.88023952,,,,,,,,,,,,,,,,,,,,mushroom,inanim_natural,1,mushroom,dog,snail,house,bear,pineapple,airplane,car,avocado,1,1,1.5463,,mushroom,inanim_natural,1,natural,2,13,49,7,1,,,,,,
5eb81d360943fe74d6aba62b,2025-08-20_15h25.30.412,GLINT,2024.2.4,Linux x86_64,59.88023952,,,,,,,,,,,,,,,,,,,,apple,inanim_natural,9,house,cat,train,bear,airplane,pineapple,dog,bread,apple,9,1,1.7642,,apple,inanim_natural,1,natural,2,14,50,9,1,,,,,,
5eb81d360943fe74d6aba62b,2025-08-20_15h25.30.412,GLINT,2024.2.4,Linux x86_64,59.88023952,,,,,,,,,,,,,,,,,,,,bread,inanim_natural,3,binoculars,cat,bread,butterfly,avocado,lawnmower,corn,dog,car,3,1,1.4109,,bread,inanim_natural,1,natural,2,15,51,6,1,,,,,,
5eb81d360943fe74d6aba62b,2025-08-20_15h25.30.412,GLINT,2024.2.4,Linux x86_64,59.88023952,,,,,,,,,,,,,,,,,,,,corn,inanim_natural,8,avocado,lawnmower,house,dog,binoculars,cow,cat,corn,pineapple,8,1,2.6006,,corn,inanim_natural,1,natural,2,16,52,10,1,,,,,,
5eb81d360943fe74d6aba62b,2025-08-20_15h25.30.412,GLINT,2024.2.4,Linux x86_64,59.88023952,,,,,,,,,,,,,,,,,,,,train,inanim_artificial,9,dog,bread,cat,house,bear,binoculars,pineapple,mushroom,train,9,1,1.7848,,train,inanim_artificial,1,natural,2,17,53,17,1,,,,,,
5eb81d360943fe74d6aba62b,2025-08-20_15h25.30.412,GLINT,2024.2.4,Linux x86_64,59.88023952,,,,,,,,,,,,,,,,,,,,house,inanim_artificial,5,bear,snail,pineapple,bread,house,binoculars,lawnmower,dog,corn,5,1,3.2654,,house,inanim_artificial,1,natural,3,0,54,15,1,,,,,,
5eb81d360943fe74d6aba62b,2025-08-20_15h25.30.412,GLINT,2024.2.4,Linux x86_64,59.88023952,,,,,,,,,,,,,,,,,,,,dog,anim_natural,2,mushroom,dog,butterfly,pineapple,lawnmower,house,apple,cow,airplane,2,1,1.0779,,dog,anim_natural,1,natural,3,1,55,4,1,,,,,,
5eb81d360943fe74d6aba62b,2025-08-20_15h25.30.412,GLINT,2024.2.4,Linux x86_64,59.88023952,,,,,,,,,,,,,,,,,,,,airplane,inanim_artificial,6,apple,cat,snail,car,binoculars,airplane,cow,corn,bread,6,1,1.4126,,airplane,inanim_artificial,1,natural,3,2,56,12,1,,,,,,
5eb81d360943fe74d6aba62b,2025-08-20_15h25.30.412,GLINT,2024.2.4,Linux x86_64,59.88023952,,,,,,,,,,,,,,,,,,,,butterfly,anim_natural,3,bread,train,butterfly,cat,lawnmower,airplane,apple,avocado,cow,3,1,1.1628,,butterfly,anim_natural,1,natural,3,3,57,1,1,,,,,,
5eb81d360943fe74d6aba62b,2025-08-20_15h25.30.412,GLINT,2024.2.4,Linux x86_64,59.88023952,,,,,,,,,,,,,,,,,,,,snail,anim_natural,8,binoculars,mushroom,car,cat,cow,apple,house,snail,corn,8,1,1.8143,,snail,anim_natural,1,natural,3,4,58,5,1,,,,,,
5eb81d360943fe74d6aba62b,2025-08-20_15h25.30.412,GLINT,2024.2.4,Linux x86_64,59.88023952,,,,,,,,,,,,,,,,,,,,corn,inanim_natural,4,train,bear,cow,corn,bread,lawnmower,binoculars,dog,avocado,4,1,2.281,,corn,inanim_natural,1,natural,3,5,59,10,1,,,,,,
5eb81d360943fe74d6aba62b,2025-08-20_15h25.30.412,GLINT,2024.2.4,Linux x86_64,59.88023952,,,,,,,,,,,,,,,,,,,,bread,inanim_natural,4,avocado,butterfly,bear,bread,train,house,snail,pineapple,car,4,1,1.3856,,bread,inanim_natural,1,natural,3,6,60,6,1,,,,,,
5eb81d360943fe74d6aba62b,2025-08-20_15h25.30.412,GLINT,2024.2.4,Linux x86_64,59.88023952,,,,,,,,,,,,,,,,,,,,car,inanim_artificial,5,lawnmower,snail,corn,binoculars,car,cat,cow,apple,avocado,5,1,1.45,,car,inanim_artificial,1,natural,3,7,61,14,1,,,,,,
5eb81d360943fe74d6aba62b,2025-08-20_15h25.30.412,GLINT,2024.2.4,Linux x86_64,59.88023952,,,,,,,,,,,,,,,,,,,,avocado,inanim_natural,8,bear,dog,train,house,cat,airplane,pineapple,avocado,apple,8,1,2.0311,,avocado,inanim_natural,1,natural,3,8,62,11,1,,,,,,
5eb81d360943fe74d6aba62b,2025-08-20_15h25.30.412,GLINT,2024.2.4,Linux x86_64,59.88023952,,,,,,,,,,,,,,,,,,,,cat,anim_natural,3,apple,train,cat,snail,dog,pineapple,lawnmower,avocado,car,3,1,1.2521,,cat,anim_natural,1,natural,3,9,63,2,1,,,,,,
5eb81d360943fe74d6aba62b,2025-08-20_15h25.30.412,GLINT,2024.2.4,Linux x86_64,59.88023952,,,,,,,,,,,,,,,,,,,,mushroom,inanim_natural,6,train,dog,car,butterfly,apple,mushroom,airplane,bear,avocado,6,1,1.1611,,mushroom,inanim_natural,1,natural,3,10,64,7,1,,,,,,
5eb81d360943fe74d6aba62b,2025-08-20_15h25.30.412,GLINT,2024.2.4,Linux x86_64,59.88023952,,,,,,,,,,,,,,,,,,,,train,inanim_artificial,7,house,corn,butterfly,airplane,pineapple,mushroom,train,cow,cat,7,1,1.984,,train,inanim_artificial,1,natural,3,11,65,17,1,,,,,,
5eb81d360943fe74d6aba62b,2025-08-20_15h25.30.412,GLINT,2024.2.4,Linux x86_64,59.88023952,,,,,,,,,,,,,,,,,,,,lawnmower,inanim_artificial,3,mushroom,cat,lawnmower,corn,cow,butterfly,car,house,pineapple,3,1,1.365,,lawnmower,inanim_artificial,1,natural,3,12,66,16,1,,,,,,
5eb81d360943fe74d6aba62b,2025-08-20_15h25.30.412,GLINT,2024.2.4,Linux x86_64,59.88023952,,,,,,,,,,,,,,,,,,,,pineapple,inanim_natural,9,dog,binoculars,apple,mushroom,house,lawnmower,snail,bear,pineapple,9,1,1.4782,,pineapple,inanim_natural,1,natural,3,13,67,8,1,,,,,,
5eb81d360943fe74d6aba62b,2025-08-20_15h25.30.412,GLINT,2024.2.4,Linux x86_64,59.88023952,,,,,,,,,,,,,,,,,,,,cow,anim_natural,2,house,cow,train,airplane,corn,mushroom,cat,bread,butterfly,2,1,1.0115,,cow,anim_natural,1,natural,3,14,68,3,1,,,,,,
5eb81d360943fe74d6aba62b,2025-08-20_15h25.30.412,GLINT,2024.2.4,Linux x86_64,59.88023952,,,,,,,,,,,,,,,,,,,,binoculars,inanim_artificial,2,lawnmower,binoculars,bear,bread,dog,cat,train,pineapple,avocado,2,1,1.0473,,binoculars,inanim_artificial,1,natural,3,15,69,13,1,,,,,,
5eb81d360943fe74d6aba62b,2025-08-20_15h25.30.412,GLINT,2024.2.4,Linux x86_64,59.88023952,,,,,,,,,,,,,,,,,,,,apple,inanim_natural,4,snail,bear,corn,apple,mushroom,binoculars,lawnmower,cat,airplane,4,1,1.1009,,apple,inanim_natural,1,natural,3,16,70,9,1,,,,,,
5eb81d360943fe74d6aba62b,2025-08-20_15h25.30.412,GLINT,2024.2.4,Linux x86_64,59.88023952,,,,,,,,,,,,,,,,,,,,bear,anim_natural,3,train,car,bear,dog,snail,lawnmower,bread,avocado,apple,3,1,1.7045,,bear,anim_natural,1,natural,3,17,71,0,1,,,,,,
5eb81d360943fe74d6aba62b,2025-08-20_15h25.30.412,GLINT,2024.2.4,Linux x86_64,59.88023952,,,,,,,,,,,,,,,,,,,,,,,,,,,,,,,,,,,,,,,,,,,,,0,1,1,0,1,natural
5eb81d360943fe74d6aba62b,2025-08-20_15h25.30.412,GLINT,2024.2.4,Linux x86_64,59.88023952,,,,,,,,,,,,,,,,,,,,train,inanim_artificial,9,house,dog,car,bear,corn,snail,pineapple,bread,train,9,1,2.2476,,train,inanim_artificial,1,scrambled,0,0,0,17,1,,,,,,
5eb81d360943fe74d6aba62b,2025-08-20_15h25.30.412,GLINT,2024.2.4,Linux x86_64,59.88023952,,,,,,,,,,,,,,,,,,,,bear,anim_natural,9,cow,binoculars,mushroom,butterfly,car,house,avocado,apple,bear,1,0,3.4309,,cow,anim_natural,1,scrambled,0,1,1,0,1,,,,,,
5eb81d360943fe74d6aba62b,2025-08-20_15h25.30.412,GLINT,2024.2.4,Linux x86_64,59.88023952,,,,,,,,,,,,,,,,,,,,lawnmower,inanim_artificial,3,bear,airplane,lawnmower,mushroom,avocado,cat,corn,house,snail,3,1,1.0773,,lawnmower,inanim_artificial,1,scrambled,0,2,2,16,1,,,,,,
5eb81d360943fe74d6aba62b,2025-08-20_15h25.30.412,GLINT,2024.2.4,Linux x86_64,59.88023952,,,,,,,,,,,,,,,,,,,,car,inanim_artificial,4,butterfly,avocado,lawnmower,car,mushroom,cow,binoculars,cat,bread,4,1,0.9774,,car,inanim_artificial,1,scrambled,0,3,3,14,1,,,,,,
5eb81d360943fe74d6aba62b,2025-08-20_15h25.30.412,GLINT,2024.2.4,Linux x86_64,59.88023952,,,,,,,,,,,,,,,,,,,,apple,inanim_natural,6,binoculars,avocado,house,pineapple,cow,apple,bear,snail,airplane,6,1,1.7205,,apple,inanim_natural,1,scrambled,0,4,4,9,1,,,,,,
5eb81d360943fe74d6aba62b,2025-08-20_15h25.30.412,GLINT,2024.2.4,Linux x86_64,59.88023952,,,,,,,,,,,,,,,,,,,,pineapple,inanim_natural,6,airplane,cat,mushroom,bear,binoculars,pineapple,lawnmower,avocado,dog,4,0,2.3305,,bear,anim_natural,0,scrambled,0,5,5,8,1,,,,,,
5eb81d360943fe74d6aba62b,2025-08-20_15h25.30.412,GLINT,2024.2.4,Linux x86_64,59.88023952,,,,,,,,,,,,,,,,,,,,mushroom,inanim_natural,8,bread,bear,snail,dog,lawnmower,binoculars,house,mushroom,corn,8,1,1.7711,,mushroom,inanim_natural,1,scrambled,0,6,6,7,1,,,,,,
5eb81d360943fe74d6aba62b,2025-08-20_15h25.30.412,GLINT,2024.2.4,Linux x86_64,59.88023952,,,,,,,,,,,,,,,,,,,,corn,inanim_natural,6,train,lawnmower,cow,car,avocado,corn,cat,butterfly,apple,6,1,2.1668,,corn,inanim_natural,1,scrambled,0,7,7,10,1,,,,,,
5eb81d360943fe74d6aba62b,2025-08-20_15h25.30.412,GLINT,2024.2.4,Linux x86_64,59.88023952,,,,,,,,,,,,,,,,,,,,bread,inanim_natural,8,corn,house,snail,bear,apple,cow,binoculars,bread,lawnmower,8,1,2.3135,,bread,inanim_natural,1,scrambled,0,8,8,6,1,,,,,,
5eb81d360943fe74d6aba62b,2025-08-20_15h25.30.412,GLINT,2024.2.4,Linux x86_64,59.88023952,,,,,,,,,,,,,,,,,,,,binoculars,inanim_artificial,2,bread,binoculars,dog,avocado,house,lawnmower,butterfly,cat,mushroom,2,1,1.1465,,binoculars,inanim_artificial,1,scrambled,0,9,9,13,1,,,,,,
5eb81d360943fe74d6aba62b,2025-08-20_15h25.30.412,GLINT,2024.2.4,Linux x86_64,59.88023952,,,,,,,,,,,,,,,,,,,,house,inanim_artificial,4,cow,apple,train,house,cat,corn,binoculars,snail,mushroom,4,1,1.6885,,house,inanim_artificial,1,scrambled,0,10,10,15,1,,,,,,
5eb81d360943fe74d6aba62b,2025-08-20_15h25.30.412,GLINT,2024.2.4,Linux x86_64,59.88023952,,,,,,,,,,,,,,,,,,,,snail,anim_natural,3,bread,cat,snail,dog,lawnmower,house,mushroom,apple,train,3,1,0.8295,,snail,anim_natural,1,scrambled,0,11,11,5,1,,,,,,
5eb81d360943fe74d6aba62b,2025-08-20_15h25.30.412,GLINT,2024.2.4,Linux x86_64,59.88023952,,,,,,,,,,,,,,,,,,,,airplane,inanim_artificial,6,avocado,house,dog,butterfly,snail,airplane,train,apple,corn,6,1,1.3809,,airplane,inanim_artificial,1,scrambled,0,12,12,12,1,,,,,,
5eb81d360943fe74d6aba62b,2025-08-20_15h25.30.412,GLINT,2024.2.4,Linux x86_64,59.88023952,,,,,,,,,,,,,,,,,,,,butterfly,anim_natural,7,house,cat,apple,airplane,bread,train,butterfly,snail,pineapple,7,1,2.0835,,butterfly,anim_natural,1,scrambled,0,13,13,1,1,,,,,,
5eb81d360943fe74d6aba62b,2025-08-20_15h25.30.412,GLINT,2024.2.4,Linux x86_64,59.88023952,,,,,,,,,,,,,,,,,,,,avocado,inanim_natural,6,bread,cat,airplane,cow,pineapple,avocado,butterfly,house,car,6,1,1.9045,,avocado,inanim_natural,1,scrambled,0,14,14,11,1,,,,,,
5eb81d360943fe74d6aba62b,2025-08-20_15h25.30.412,GLINT,2024.2.4,Linux x86_64,59.88023952,,,,,,,,,,,,,,,,,,,,cow,anim_natural,4,lawnmower,dog,car,cow,pineapple,snail,mushroom,binoculars,avocado,4,1,2.0853,,cow,anim_natural,1,scrambled,0,15,15,3,1,,,,,,
5eb81d360943fe74d6aba62b,2025-08-20_15h25.30.412,GLINT,2024.2.4,Linux x86_64,59.88023952,,,,,,,,,,,,,,,,,,,,cat,anim_natural,3,train,dog,cat,car,airplane,snail,bread,mushroom,corn,3,1,0.8749,,cat,anim_natural,1,scrambled,0,16,16,2,1,,,,,,
5eb81d360943fe74d6aba62b,2025-08-20_15h25.30.412,GLINT,2024.2.4,Linux x86_64,59.88023952,,,,,,,,,,,,,,,,,,,,dog,anim_natural,4,bread,airplane,apple,dog,train,lawnmower,cat,avocado,bear,7,0,1.8359,,cat,anim_natural,1,scrambled,0,17,17,4,1,,,,,,
5eb81d360943fe74d6aba62b,2025-08-20_15h25.30.412,GLINT,2024.2.4,Linux x86_64,59.88023952,,,,,,,,,,,,,,,,,,,,pineapple,inanim_natural,5,lawnmower,binoculars,cow,mushroom,pineapple,butterfly,bear,house,corn,5,1,1.0967,,pineapple,inanim_natural,1,scrambled,1,0,18,8,1,,,,,,
5eb81d360943fe74d6aba62b,2025-08-20_15h25.30.412,GLINT,2024.2.4,Linux x86_64,59.88023952,,,,,,,,,,,,,,,,,,,,car,inanim_artificial,9,house,butterfly,apple,dog,pineapple,cat,airplane,avocado,car,9,1,1.8521,,car,inanim_artificial,1,scrambled,1,1,19,14,1,,,,,,
5eb81d360943fe74d6aba62b,2025-08-20_15h25.30.412,GLINT,2024.2.4,Linux x86_64,59.88023952,,,,,,,,,,,,,,,,,,,,binoculars,inanim_artificial,3,butterfly,cat,binoculars,apple,mushroom,pineapple,airplane,lawnmower,dog,3,1,1.3708,,binoculars,inanim_artificial,1,scrambled,1,2,20,13,1,,,,,,
5eb81d360943fe74d6aba62b,2025-08-20_15h25.30.412,GLINT,2024.2.4,Linux x86_64,59.88023952,,,,,,,,,,,,,,,,,,,,mushroom,inanim_natural,2,binoculars,mushroom,apple,dog,cow,cat,airplane,train,corn,2,1,0.9516,,mushroom,inanim_natural,1,scrambled,1,3,21,7,1,,,,,,
5eb81d360943fe74d6aba62b,2025-08-20_15h25.30.412,GLINT,2024.2.4,Linux x86_64,59.88023952,,,,,,,,,,,,,,,,,,,,lawnmower,inanim_artificial,7,house,dog,corn,butterfly,airplane,apple,lawnmower,avocado,bear,7,1,1.601,,lawnmower,inanim_artificial,1,scrambled,1,4,22,16,1,,,,,,
5eb81d360943fe74d6aba62b,2025-08-20_15h25.30.412,GLINT,2024.2.4,Linux x86_64,59.88023952,,,,,,,,,,,,,,,,,,,,cat,anim_natural,1,cat,bear,dog,avocado,bread,house,airplane,binoculars,corn,3,0,2.4716,,dog,anim_natural,1,scrambled,1,5,23,2,1,,,,,,
5eb81d360943fe74d6aba62b,2025-08-20_15h25.30.412,GLINT,2024.2.4,Linux x86_64,59.88023952,,,,,,,,,,,,,,,,,,,,butterfly,anim_natural,1,butterfly,lawnmower,pineapple,snail,corn,bread,train,airplane,cow,1,1,1.1614,,butterfly,anim_natural,1,scrambled,1,6,24,1,1,,,,,,
5eb81d360943fe74d6aba62b,2025-08-20_15h25.30.412,GLINT,2024.2.4,Linux x86_64,59.88023952,,,,,,,,,,,,,,,,,,,,cow,anim_natural,2,car,cow,bear,avocado,airplane,butterfly,bread,apple,binoculars,2,1,0.5645,,cow,anim_natural,1,scrambled,1,7,25,3,1,,,,,,
5eb81d360943fe74d6aba62b,2025-08-20_15h25.30.412,GLINT,2024.2.4,Linux x86_64,59.88023952,,,,,,,,,,,,,,,,,,,,house,inanim_artificial,1,house,bread,train,dog,pineapple,car,bear,corn,butterfly,1,1,2.3269,,house,inanim_artificial,1,scrambled,1,8,26,15,1,,,,,,
5eb81d360943fe74d6aba62b,2025-08-20_15h25.30.412,GLINT,2024.2.4,Linux x86_64,59.88023952,,,,,,,,,,,,,,,,,,,,dog,anim_natural,8,binoculars,snail,cat,avocado,pineapple,car,house,dog,bread,8,1,2.2857,,dog,anim_natural,1,scrambled,1,9,27,4,1,,,,,,
5eb81d360943fe74d6aba62b,2025-08-20_15h25.30.412,GLINT,2024.2.4,Linux x86_64,59.88023952,,,,,,,,,,,,,,,,,,,,airplane,inanim_artificial,5,pineapple,avocado,car,cow,airplane,butterfly,bread,lawnmower,dog,5,1,1.0682,,airplane,inanim_artificial,1,scrambled,1,10,28,12,1,,,,,,
5eb81d360943fe74d6aba62b,2025-08-20_15h25.30.412,GLINT,2024.2.4,Linux x86_64,59.88023952,,,,,,,,,,,,,,,,,,,,apple,inanim_natural,9,pineapple,butterfly,dog,lawnmower,cow,airplane,corn,car,apple,9,1,1.8741,,apple,inanim_natural,1,scrambled,1,11,29,9,1,,,,,,
5eb81d360943fe74d6aba62b,2025-08-20_15h25.30.412,GLINT,2024.2.4,Linux x86_64,59.88023952,,,,,,,,,,,,,,,,,,,,bread,inanim_natural,3,avocado,train,bread,car,bear,apple,cow,airplane,dog,3,1,1.1423,,bread,inanim_natural,1,scrambled,1,12,30,6,1,,,,,,
5eb81d360943fe74d6aba62b,2025-08-20_15h25.30.412,GLINT,2024.2.4,Linux x86_64,59.88023952,,,,,,,,,,,,,,,,,,,,bear,anim_natural,7,cat,pineapple,airplane,apple,snail,bread,bear,car,lawnmower,7,1,2.6415,,bear,anim_natural,1,scrambled,1,13,31,0,1,,,,,,
5eb81d360943fe74d6aba62b,2025-08-20_15h25.30.412,GLINT,2024.2.4,Linux x86_64,59.88023952,,,,,,,,,,,,,,,,,,,,train,inanim_artificial,2,snail,train,car,butterfly,bread,lawnmower,corn,apple,bear,2,1,2.5292,,train,inanim_artificial,1,scrambled,1,14,32,17,1,,,,,,
5eb81d360943fe74d6aba62b,2025-08-20_15h25.30.412,GLINT,2024.2.4,Linux x86_64,59.88023952,,,,,,,,,,,,,,,,,,,,snail,anim_natural,1,snail,pineapple,train,lawnmower,apple,binoculars,cat,avocado,butterfly,1,1,0.9377,,snail,anim_natural,1,scrambled,1,15,33,5,1,,,,,,
5eb81d360943fe74d6aba62b,2025-08-20_15h25.30.412,GLINT,2024.2.4,Linux x86_64,59.88023952,,,,,,,,,,,,,,,,,,,,avocado,inanim_natural,9,apple,cat,cow,house,train,butterfly,car,bread,avocado,9,1,1.6353,,avocado,inanim_natural,1,scrambled,1,16,34,11,1,,,,,,
5eb81d360943fe74d6aba62b,2025-08-20_15h25.30.412,GLINT,2024.2.4,Linux x86_64,59.88023952,,,,,,,,,,,,,,,,,,,,corn,inanim_natural,7,bear,car,butterfly,dog,mushroom,house,corn,airplane,avocado,7,1,1.9936,,corn,inanim_natural,1,scrambled,1,17,35,10,1,,,,,,
5eb81d360943fe74d6aba62b,2025-08-20_15h25.30.412,GLINT,2024.2.4,Linux x86_64,59.88023952,,,,,,,,,,,,,,,,,,,,house,inanim_artificial,8,dog,corn,car,bear,mushroom,cat,pineapple,house,train,8,1,1.2778,,house,inanim_artificial,1,scrambled,2,0,36,15,1,,,,,,
5eb81d360943fe74d6aba62b,2025-08-20_15h25.30.412,GLINT,2024.2.4,Linux x86_64,59.88023952,,,,,,,,,,,,,,,,,,,,airplane,inanim_artificial,1,airplane,snail,cow,lawnmower,avocado,butterfly,bread,mushroom,train,1,1,1.0511,,airplane,inanim_artificial,1,scrambled,2,1,37,12,1,,,,,,
5eb81d360943fe74d6aba62b,2025-08-20_15h25.30.412,GLINT,2024.2.4,Linux x86_64,59.88023952,,,,,,,,,,,,,,,,,,,,corn,inanim_natural,4,lawnmower,apple,bread,corn,bear,butterfly,snail,binoculars,airplane,4,1,0.8075,,corn,inanim_natural,1,scrambled,2,2,38,10,1,,,,,,
5eb81d360943fe74d6aba62b,2025-08-20_15h25.30.412,GLINT,2024.2.4,Linux x86_64,59.88023952,,,,,,,,,,,,,,,,,,,,bear,anim_natural,8,house,butterfly,corn,airplane,car,cow,mushroom,bear,bread,8,1,1.9734,,bear,anim_natural,1,scrambled,2,3,39,0,1,,,,,,
5eb81d360943fe74d6aba62b,2025-08-20_15h25.30.412,GLINT,2024.2.4,Linux x86_64,59.88023952,,,,,,,,,,,,,,,,,,,,cat,anim_natural,6,avocado,airplane,apple,car,bear,cat,bread,binoculars,snail,6,1,1.6856,,cat,anim_natural,1,scrambled,2,4,40,2,1,,,,,,
5eb81d360943fe74d6aba62b,2025-08-20_15h25.30.412,GLINT,2024.2.4,Linux x86_64,59.88023952,,,,,,,,,,,,,,,,,,,,snail,anim_natural,8,cow,apple,mushroom,lawnmower,bread,dog,house,snail,train,8,1,1.8167,,snail,anim_natural,1,scrambled,2,5,41,5,1,,,,,,
5eb81d360943fe74d6aba62b,2025-08-20_15h25.30.412,GLINT,2024.2.4,Linux x86_64,59.88023952,,,,,,,,,,,,,,,,,,,,car,inanim_artificial,9,house,cow,snail,mushroom,dog,corn,binoculars,apple,car,9,1,1.7191,,car,inanim_artificial,1,scrambled,2,6,42,14,1,,,,,,
5eb81d360943fe74d6aba62b,2025-08-20_15h25.30.412,GLINT,2024.2.4,Linux x86_64,59.88023952,,,,,,,,,,,,,,,,,,,,bread,inanim_natural,9,train,dog,airplane,mushroom,cat,house,corn,snail,bread,9,1,1.577,,bread,inanim_natural,1,scrambled,2,7,43,6,1,,,,,,
5eb81d360943fe74d6aba62b,2025-08-20_15h25.30.412,GLINT,2024.2.4,Linux x86_64,59.88023952,,,,,,,,,,,,,,,,,,,,apple,inanim_natural,4,binoculars,bread,cow,apple,cat,butterfly,pineapple,airplane,house,4,1,1.2966,,apple,inanim_natural,1,scrambled,2,8,44,9,1,,,,,,
5eb81d360943fe74d6aba62b,2025-08-20_15h25.30.412,GLINT,2024.2.4,Linux x86_64,59.88023952,,,,,,,,,,,,,,,,,,,,dog,anim_natural,4,avocado,snail,pineapple,dog,car,apple,house,bear,lawnmower,4,1,1.4674,,dog,anim_natural,1,scrambled,2,9,45,4,1,,,,,,
5eb81d360943fe74d6aba62b,2025-08-20_15h25.30.412,GLINT,2024.2.4,Linux x86_64,59.88023952,,,,,,,,,,,,,,,,,,,,cow,anim_natural,6,bread,car,corn,butterfly,binoculars,cow,lawnmower,cat,apple,6,1,1.7902,,cow,anim_natural,1,scrambled,2,10,46,3,1,,,,,,
5eb81d360943fe74d6aba62b,2025-08-20_15h25.30.412,GLINT,2024.2.4,Linux x86_64,59.88023952,,,,,,,,,,,,,,,,,,,,train,inanim_artificial,4,butterfly,lawnmower,apple,train,cow,mushroom,avocado,house,dog,4,1,1.6298,,train,inanim_artificial,1,scrambled,2,11,47,17,1,,,,,,
5eb81d360943fe74d6aba62b,2025-08-20_15h25.30.412,GLINT,2024.2.4,Linux x86_64,59.88023952,,,,,,,,,,,,,,,,,,,,avocado,inanim_natural,9,pineapple,butterfly,corn,train,snail,lawnmower,dog,house,avocado,9,1,1.9252,,avocado,inanim_natural,1,scrambled,2,12,48,11,1,,,,,,
5eb81d360943fe74d6aba62b,2025-08-20_15h25.30.412,GLINT,2024.2.4,Linux x86_64,59.88023952,,,,,,,,,,,,,,,,,,,,binoculars,inanim_artificial,4,cat,dog,pineapple,binoculars,apple,car,bread,train,snail,4,1,1.1419,,binoculars,inanim_artificial,1,scrambled,2,13,49,13,1,,,,,,
5eb81d360943fe74d6aba62b,2025-08-20_15h25.30.412,GLINT,2024.2.4,Linux x86_64,59.88023952,,,,,,,,,,,,,,,,,,,,pineapple,inanim_natural,4,mushroom,butterfly,house,pineapple,binoculars,dog,car,corn,cat,4,1,0.9424,,pineapple,inanim_natural,1,scrambled,2,14,50,8,1,,,,,,
5eb81d360943fe74d6aba62b,2025-08-20_15h25.30.412,GLINT,2024.2.4,Linux x86_64,59.88023952,,,,,,,,,,,,,,,,,,,,butterfly,anim_natural,6,lawnmower,car,corn,mushroom,bear,butterfly,dog,airplane,pineapple,6,1,1.2474,,butterfly,anim_natural,1,scrambled,2,15,51,1,1,,,,,,
5eb81d360943fe74d6aba62b,2025-08-20_15h25.30.412,GLINT,2024.2.4,Linux x86_64,59.88023952,,,,,,,,,,,,,,,,,,,,lawnmower,inanim_artificial,2,snail,lawnmower,bread,pineapple,butterfly,car,cow,house,apple,2,1,1.2374,,lawnmower,inanim_artificial,1,scrambled,2,16,52,16,1,,,,,,
5eb81d360943fe74d6aba62b,2025-08-20_15h25.30.412,GLINT,2024.2.4,Linux x86_64,59.88023952,,,,,,,,,,,,,,,,,,,,mushroom,inanim_natural,9,snail,binoculars,cat,apple,bread,car,butterfly,lawnmower,mushroom,9,1,0.9609,,mushroom,inanim_natural,1,scrambled,2,17,53,7,1,,,,,,
5eb81d360943fe74d6aba62b,2025-08-20_15h25.30.412,GLINT,2024.2.4,Linux x86_64,59.88023952,,,,,,,,,,,,,,,,,,,,mushroom,inanim_natural,2,house,mushroom,butterfly,airplane,bread,dog,lawnmower,bear,avocado,2,1,1.347,,mushroom,inanim_natural,1,scrambled,3,0,54,7,1,,,,,,
5eb81d360943fe74d6aba62b,2025-08-20_15h25.30.412,GLINT,2024.2.4,Linux x86_64,59.88023952,,,,,,,,,,,,,,,,,,,,dog,anim_natural,1,dog,pineapple,snail,mushroom,corn,train,cat,car,house,1,1,4.0598,,dog,anim_natural,1,scrambled,3,1,55,4,1,,,,,,
5eb81d360943fe74d6aba62b,2025-08-20_15h25.30.412,GLINT,2024.2.4,Linux x86_64,59.88023952,,,,,,,,,,,,,,,,,,,,snail,anim_natural,8,car,avocado,dog,bread,airplane,cat,train,snail,pineapple,8,1,3.9142,,snail,anim_natural,1,scrambled,3,2,56,5,1,,,,,,
5eb81d360943fe74d6aba62b,2025-08-20_15h25.30.412,GLINT,2024.2.4,Linux x86_64,59.88023952,,,,,,,,,,,,,,,,,,,,cow,anim_natural,7,airplane,house,corn,cat,train,mushroom,cow,avocado,butterfly,7,1,1.534,,cow,anim_natural,1,scrambled,3,3,57,3,1,,,,,,
5eb81d360943fe74d6aba62b,2025-08-20_15h25.30.412,GLINT,2024.2.4,Linux x86_64,59.88023952,,,,,,,,,,,,,,,,,,,,avocado,inanim_natural,8,lawnmower,mushroom,apple,binoculars,snail,car,bear,avocado,cat,8,1,1.6009,,avocado,inanim_natural,1,scrambled,3,4,58,11,1,,,,,,
5eb81d360943fe74d6aba62b,2025-08-20_15h25.30.412,GLINT,2024.2.4,Linux x86_64,59.88023952,,,,,,,,,,,,,,,,,,,,car,inanim_artificial,6,butterfly,corn,snail,house,cat,car,pineapple,binoculars,mushroom,6,1,1.8617,,car,inanim_artificial,1,scrambled,3,5,59,14,1,,,,,,
5eb81d360943fe74d6aba62b,2025-08-20_15h25.30.412,GLINT,2024.2.4,Linux x86_64,59.88023952,,,,,,,,,,,,,,,,,,,,butterfly,anim_natural,5,train,car,lawnmower,dog,butterfly,mushroom,avocado,cat,corn,5,1,1.338,,butterfly,anim_natural,1,scrambled,3,6,60,1,1,,,,,,
5eb81d360943fe74d6aba62b,2025-08-20_15h25.30.412,GLINT,2024.2.4,Linux x86_64,59.88023952,,,,,,,,,,,,,,,,,,,,bread,inanim_natural,3,avocado,snail,bread,cat,apple,car,butterfly,train,binoculars,3,1,0.9144,,bread,inanim_natural,1,scrambled,3,7,61,6,1,,,,,,
5eb81d360943fe74d6aba62b,2025-08-20_15h25.30.412,GLINT,2024.2.4,Linux x86_64,59.88023952,,,,,,,,,,,,,,,,,,,,train,inanim_artificial,7,snail,apple,bread,bear,house,butterfly,train,lawnmower,avocado,7,1,1.2219,,train,inanim_artificial,1,scrambled,3,8,62,17,1,,,,,,
5eb81d360943fe74d6aba62b,2025-08-20_15h25.30.412,GLINT,2024.2.4,Linux x86_64,59.88023952,,,,,,,,,,,,,,,,,,,,bear,anim_natural,9,apple,lawnmower,snail,binoculars,cow,house,corn,bread,bear,5,0,3.9955,,cow,anim_natural,1,scrambled,3,9,63,0,1,,,,,,
5eb81d360943fe74d6aba62b,2025-08-20_15h25.30.412,GLINT,2024.2.4,Linux x86_64,59.88023952,,,,,,,,,,,,,,,,,,,,apple,inanim_natural,5,cow,snail,bread,cat,apple,binoculars,train,avocado,lawnmower,5,1,0.7114,,apple,inanim_natural,1,scrambled,3,10,64,9,1,,,,,,
5eb81d360943fe74d6aba62b,2025-08-20_15h25.30.412,GLINT,2024.2.4,Linux x86_64,59.88023952,,,,,,,,,,,,,,,,,,,,lawnmower,inanim_artificial,5,butterfly,airplane,avocado,pineapple,lawnmower,bear,mushroom,car,snail,5,1,0.8431,,lawnmower,inanim_artificial,1,scrambled,3,11,65,16,1,,,,,,
5eb81d360943fe74d6aba62b,2025-08-20_15h25.30.412,GLINT,2024.2.4,Linux x86_64,59.88023952,,,,,,,,,,,,,,,,,,,,pineapple,inanim_natural,3,binoculars,avocado,pineapple,car,dog,airplane,cat,corn,cow,3,1,1.6247,,pineapple,inanim_natural,1,scrambled,3,12,66,8,1,,,,,,
5eb81d360943fe74d6aba62b,2025-08-20_15h25.30.412,GLINT,2024.2.4,Linux x86_64,59.88023952,,,,,,,,,,,,,,,,,,,,house,inanim_artificial,5,bear,dog,cow,airplane,house,corn,train,avocado,bread,5,1,0.6707,,house,inanim_artificial,1,scrambled,3,13,67,15,1,,,,,,
5eb81d360943fe74d6aba62b,2025-08-20_15h25.30.412,GLINT,2024.2.4,Linux x86_64,59.88023952,,,,,,,,,,,,,,,,,,,,binoculars,inanim_artificial,7,snail,mushroom,train,cat,pineapple,bear,binoculars,airplane,avocado,7,1,1.5295,,binoculars,inanim_artificial,1,scrambled,3,14,68,13,1,,,,,,
5eb81d360943fe74d6aba62b,2025-08-20_15h25.30.412,GLINT,2024.2.4,Linux x86_64,59.88023952,,,,,,,,,,,,,,,,,,,,corn,inanim_natural,8,bread,binoculars,apple,cat,car,snail,lawnmower,corn,butterfly,8,1,1.7009,,corn,inanim_natural,1,scrambled,3,15,69,10,1,,,,,,
5eb81d360943fe74d6aba62b,2025-08-20_15h25.30.412,GLINT,2024.2.4,Linux x86_64,59.88023952,,,,,,,,,,,,,,,,,,,,airplane,inanim_artificial,8,lawnmower,bread,avocado,car,pineapple,bear,cow,airplane,cat,8,1,1.7088,,airplane,inanim_artificial,1,scrambled,3,16,70,12,1,,,,,,
5eb81d360943fe74d6aba62b,2025-08-20_15h25.30.412,GLINT,2024.2.4,Linux x86_64,59.88023952,,,,,,,,,,,,,,,,,,,,cat,anim_natural,8,pineapple,house,dog,mushroom,butterfly,lawnmower,binoculars,cat,avocado,8,1,1.5599,,cat,anim_natural,1,scrambled,3,17,71,2,1,,,,,,
5eb81d360943fe74d6aba62b,2025-08-20_15h25.30.412,GLINT,2024.2.4,Linux x86_64,59.88023952,,,,,,,,,,,,,,,,,,,,,,,,,,,,,,,,,,,,,,,,,,,,,0,2,2,2,1,scrambled
