participant,date,expName,psychopyVersion,OS,frameRate,CorrectResponse,prac_prompt_1,prac_prompt_2,prac_prompt_3,prac_prompt_4,prac_prompt_5,prac_prompt_6,prac_prompt_7,prac_prompt_8,prac_prompt_9,prac_key_resp.keys,prac_key_resp.corr,prac_key_resp.rt,prac_key_resp.duration,prac_loop.thisRepN,prac_loop.thisTrialN,prac_loop.thisN,prac_loop.thisIndex,prac_loop.ran,object_class,object_category,corr_ans,prompt_1,prompt_2,prompt_3,prompt_4,prompt_5,prompt_6,prompt_7,prompt_8,prompt_9,key_resp.keys,key_resp.corr,key_resp.rt,key_resp.duration,response_label,response_animacy,corr_animacy,img_condition,test_loop.thisRepN,test_loop.thisTrialN,test_loop.thisN,test_loop.thisIndex,test_loop.ran,randomize_blocks.thisRepN,randomize_blocks.thisTrialN,randomize_blocks.thisN,randomize_blocks.thisIndex,randomize_blocks.ran,block_condition
607668ac450fc6e3025a131d,2025-08-20_15h37.55.489,GLINT,2024.2.4,MacIntel,30.12048193,,,,,,,,,,,,,,,,,,,,,,,,,,,,,,,,,,,,,,,,,,,,,,,,,,
607668ac450fc6e3025a131d,2025-08-20_15h37.55.489,GLINT,2024.2.4,MacIntel,30.12048193,,,,,,,,,,,,,,,,,,,,,,,,,,,,,,,,,,,,,,,,,,,,,,,,,,
607668ac450fc6e3025a131d,2025-08-20_15h37.55.489,GLINT,2024.2.4,MacIntel,30.12048193,,,,,,,,,,,,,,,,,,,,,,,,,,,,,,,,,,,,,,,,,,,,,,,,,,
607668ac450fc6e3025a131d,2025-08-20_15h37.55.489,GLINT,2024.2.4,MacIntel,30.12048193,4,tree,bicycle,dog,hand,flower,chair,leaf,duck,truck,4,1,3.7567,,0,0,0,0,1,hand,anim_natural,,,,,,,,,,,,,,,,,,,,,,,,,,,,,
607668ac450fc6e3025a131d,2025-08-20_15h37.55.489,GLINT,2024.2.4,MacIntel,30.12048193,4,duck,hand,truck,tree,chair,bicycle,leaf,flower,dog,4,1,1.3202,,0,1,1,4,1,tree,inanim_natural,,,,,,,,,,,,,,,,,,,,,,,,,,,,,
607668ac450fc6e3025a131d,2025-08-20_15h37.55.489,GLINT,2024.2.4,MacIntel,30.12048193,3,truck,leaf,duck,dog,bicycle,tree,flower,hand,chair,3,1,2.9631,,0,2,2,1,1,duck,anim_natural,,,,,,,,,,,,,,,,,,,,,,,,,,,,,
607668ac450fc6e3025a131d,2025-08-20_15h37.55.489,GLINT,2024.2.4,MacIntel,30.12048193,1,flower,dog,bicycle,duck,truck,leaf,tree,hand,chair,1,1,1.8668,,0,3,3,3,1,flower,inanim_natural,,,,,,,,,,,,,,,,,,,,,,,,,,,,,
607668ac450fc6e3025a131d,2025-08-20_15h37.55.489,GLINT,2024.2.4,MacIntel,30.12048193,7,hand,chair,flower,duck,bicycle,tree,dog,leaf,truck,7,1,1.8837,,0,4,4,2,1,dog,anim_natural,,,,,,,,,,,,,,,,,,,,,,,,,,,,,
607668ac450fc6e3025a131d,2025-08-20_15h37.55.489,GLINT,2024.2.4,MacIntel,30.12048193,,,,,,,,,,,,,,,,,,,,mushroom,inanim_natural,4,lawnmower,house,cow,mushroom,corn,snail,dog,pineapple,binoculars,4,1,1.1959,,mushroom,inanim_natural,1,natural,0,0,0,7,1,,,,,,
607668ac450fc6e3025a131d,2025-08-20_15h37.55.489,GLINT,2024.2.4,MacIntel,30.12048193,,,,,,,,,,,,,,,,,,,,cow,anim_natural,4,corn,mushroom,dog,cow,house,binoculars,butterfly,lawnmower,apple,4,1,2.9992,1E-04,cow,anim_natural,1,natural,0,1,1,3,1,,,,,,
607668ac450fc6e3025a131d,2025-08-20_15h37.55.489,GLINT,2024.2.4,MacIntel,30.12048193,,,,,,,,,,,,,,,,,,,,bread,inanim_natural,7,binoculars,dog,airplane,cow,corn,lawnmower,bread,bear,pineapple,7,1,2.6811,,bread,inanim_natural,1,natural,0,2,2,6,1,,,,,,
607668ac450fc6e3025a131d,2025-08-20_15h37.55.489,GLINT,2024.2.4,MacIntel,30.12048193,,,,,,,,,,,,,,,,,,,,lawnmower,inanim_artificial,9,cat,bread,car,mushroom,pineapple,butterfly,train,cow,lawnmower,9,1,2.162,,lawnmower,inanim_artificial,1,natural,0,3,3,16,1,,,,,,
607668ac450fc6e3025a131d,2025-08-20_15h37.55.489,GLINT,2024.2.4,MacIntel,30.12048193,,,,,,,,,,,,,,,,,,,,binoculars,inanim_artificial,4,corn,snail,apple,binoculars,bread,lawnmower,house,bear,butterfly,4,1,1.5603,,binoculars,inanim_artificial,1,natural,0,4,4,13,1,,,,,,
607668ac450fc6e3025a131d,2025-08-20_15h37.55.489,GLINT,2024.2.4,MacIntel,30.12048193,,,,,,,,,,,,,,,,,,,,train,inanim_artificial,7,corn,dog,house,apple,airplane,cow,train,pineapple,bear,7,1,1.6914,,train,inanim_artificial,1,natural,0,5,5,17,1,,,,,,
607668ac450fc6e3025a131d,2025-08-20_15h37.55.489,GLINT,2024.2.4,MacIntel,30.12048193,,,,,,,,,,,,,,,,,,,,avocado,inanim_natural,9,butterfly,cat,train,apple,lawnmower,house,bread,dog,avocado,9,1,2.079,,avocado,inanim_natural,1,natural,0,6,6,11,1,,,,,,
607668ac450fc6e3025a131d,2025-08-20_15h37.55.489,GLINT,2024.2.4,MacIntel,30.12048193,,,,,,,,,,,,,,,,,,,,cat,anim_natural,1,cat,binoculars,apple,airplane,snail,pineapple,corn,cow,train,1,1,1.3079,,cat,anim_natural,1,natural,0,7,7,2,1,,,,,,
607668ac450fc6e3025a131d,2025-08-20_15h37.55.489,GLINT,2024.2.4,MacIntel,30.12048193,,,,,,,,,,,,,,,,,,,,car,inanim_artificial,7,dog,bread,mushroom,binoculars,cat,pineapple,car,train,bear,7,1,2.29,,car,inanim_artificial,1,natural,0,8,8,14,1,,,,,,
607668ac450fc6e3025a131d,2025-08-20_15h37.55.489,GLINT,2024.2.4,MacIntel,30.12048193,,,,,,,,,,,,,,,,,,,,dog,anim_natural,4,butterfly,bear,mushroom,dog,pineapple,bread,train,lawnmower,airplane,4,1,1.3077,,dog,anim_natural,1,natural,0,9,9,4,1,,,,,,
607668ac450fc6e3025a131d,2025-08-20_15h37.55.489,GLINT,2024.2.4,MacIntel,30.12048193,,,,,,,,,,,,,,,,,,,,airplane,inanim_artificial,2,binoculars,airplane,avocado,dog,bread,cat,cow,apple,train,2,1,1.2351,,airplane,inanim_artificial,1,natural,0,10,10,12,1,,,,,,
607668ac450fc6e3025a131d,2025-08-20_15h37.55.489,GLINT,2024.2.4,MacIntel,30.12048193,,,,,,,,,,,,,,,,,,,,apple,inanim_natural,6,car,mushroom,house,airplane,bear,apple,cow,snail,corn,6,1,3.5197,,apple,inanim_natural,1,natural,0,11,11,9,1,,,,,,
607668ac450fc6e3025a131d,2025-08-20_15h37.55.489,GLINT,2024.2.4,MacIntel,30.12048193,,,,,,,,,,,,,,,,,,,,house,inanim_artificial,4,binoculars,bear,bread,house,lawnmower,avocado,cat,mushroom,snail,4,1,1.2626,,house,inanim_artificial,1,natural,0,12,12,15,1,,,,,,
607668ac450fc6e3025a131d,2025-08-20_15h37.55.489,GLINT,2024.2.4,MacIntel,30.12048193,,,,,,,,,,,,,,,,,,,,snail,anim_natural,9,butterfly,pineapple,apple,bear,house,bread,train,airplane,snail,9,1,2.3229,,snail,anim_natural,1,natural,0,13,13,5,1,,,,,,
607668ac450fc6e3025a131d,2025-08-20_15h37.55.489,GLINT,2024.2.4,MacIntel,30.12048193,,,,,,,,,,,,,,,,,,,,pineapple,inanim_natural,4,butterfly,mushroom,dog,pineapple,lawnmower,avocado,snail,house,binoculars,4,1,1.8474,,pineapple,inanim_natural,1,natural,0,14,14,8,1,,,,,,
607668ac450fc6e3025a131d,2025-08-20_15h37.55.489,GLINT,2024.2.4,MacIntel,30.12048193,,,,,,,,,,,,,,,,,,,,butterfly,anim_natural,5,corn,bear,dog,house,butterfly,airplane,apple,pineapple,car,5,1,1.3014,,butterfly,anim_natural,1,natural,0,15,15,1,1,,,,,,
607668ac450fc6e3025a131d,2025-08-20_15h37.55.489,GLINT,2024.2.4,MacIntel,30.12048193,,,,,,,,,,,,,,,,,,,,corn,inanim_natural,6,bread,lawnmower,snail,dog,airplane,corn,cow,pineapple,car,6,1,1.9781,,corn,inanim_natural,1,natural,0,16,16,10,1,,,,,,
607668ac450fc6e3025a131d,2025-08-20_15h37.55.489,GLINT,2024.2.4,MacIntel,30.12048193,,,,,,,,,,,,,,,,,,,,bear,anim_natural,6,binoculars,bread,snail,cow,airplane,bear,mushroom,corn,house,6,1,2.6003,,bear,anim_natural,1,natural,0,17,17,0,1,,,,,,
607668ac450fc6e3025a131d,2025-08-20_15h37.55.489,GLINT,2024.2.4,MacIntel,30.12048193,,,,,,,,,,,,,,,,,,,,snail,anim_natural,9,house,car,pineapple,airplane,dog,corn,avocado,butterfly,snail,8,0,2.9737,,butterfly,anim_natural,1,natural,1,0,18,5,1,,,,,,
607668ac450fc6e3025a131d,2025-08-20_15h37.55.489,GLINT,2024.2.4,MacIntel,30.12048193,,,,,,,,,,,,,,,,,,,,airplane,inanim_artificial,3,dog,corn,airplane,bread,lawnmower,pineapple,cow,train,cat,3,1,2.2799,,airplane,inanim_artificial,1,natural,1,1,19,12,1,,,,,,
607668ac450fc6e3025a131d,2025-08-20_15h37.55.489,GLINT,2024.2.4,MacIntel,30.12048193,,,,,,,,,,,,,,,,,,,,bear,anim_natural,5,cat,bread,airplane,apple,bear,house,dog,train,corn,5,1,1.5021,,bear,anim_natural,1,natural,1,2,20,0,1,,,,,,
607668ac450fc6e3025a131d,2025-08-20_15h37.55.489,GLINT,2024.2.4,MacIntel,30.12048193,,,,,,,,,,,,,,,,,,,,cat,anim_natural,4,lawnmower,apple,cow,cat,avocado,corn,house,binoculars,snail,4,1,1.6764,,cat,anim_natural,1,natural,1,3,21,2,1,,,,,,
607668ac450fc6e3025a131d,2025-08-20_15h37.55.489,GLINT,2024.2.4,MacIntel,30.12048193,,,,,,,,,,,,,,,,,,,,apple,inanim_natural,4,bear,snail,pineapple,apple,train,cat,binoculars,car,bread,4,1,2.0407,,apple,inanim_natural,1,natural,1,4,22,9,1,,,,,,
607668ac450fc6e3025a131d,2025-08-20_15h37.55.489,GLINT,2024.2.4,MacIntel,30.12048193,,,,,,,,,,,,,,,,,,,,car,inanim_artificial,9,snail,cat,cow,corn,pineapple,avocado,binoculars,lawnmower,car,9,1,2.4762,,car,inanim_artificial,1,natural,1,5,23,14,1,,,,,,
607668ac450fc6e3025a131d,2025-08-20_15h37.55.489,GLINT,2024.2.4,MacIntel,30.12048193,,,,,,,,,,,,,,,,,,,,train,inanim_artificial,1,train,bread,cow,corn,car,apple,airplane,dog,snail,1,1,1.3279,,train,inanim_artificial,1,natural,1,6,24,17,1,,,,,,
607668ac450fc6e3025a131d,2025-08-20_15h37.55.489,GLINT,2024.2.4,MacIntel,30.12048193,,,,,,,,,,,,,,,,,,,,avocado,inanim_natural,4,butterfly,binoculars,airplane,avocado,bear,train,cow,mushroom,apple,4,1,1.2217,,avocado,inanim_natural,1,natural,1,7,25,11,1,,,,,,
607668ac450fc6e3025a131d,2025-08-20_15h37.55.489,GLINT,2024.2.4,MacIntel,30.12048193,,,,,,,,,,,,,,,,,,,,dog,anim_natural,6,bread,binoculars,butterfly,avocado,cow,dog,mushroom,train,house,6,1,2.1293,,dog,anim_natural,1,natural,1,8,26,4,1,,,,,,
607668ac450fc6e3025a131d,2025-08-20_15h37.55.489,GLINT,2024.2.4,MacIntel,30.12048193,,,,,,,,,,,,,,,,,,,,cow,anim_natural,6,cat,car,pineapple,bread,airplane,cow,binoculars,apple,butterfly,6,1,2.5018,,cow,anim_natural,1,natural,1,9,27,3,1,,,,,,
607668ac450fc6e3025a131d,2025-08-20_15h37.55.489,GLINT,2024.2.4,MacIntel,30.12048193,,,,,,,,,,,,,,,,,,,,house,inanim_artificial,7,airplane,cow,mushroom,apple,snail,bread,house,cat,lawnmower,7,1,3.0693,,house,inanim_artificial,1,natural,1,10,28,15,1,,,,,,
607668ac450fc6e3025a131d,2025-08-20_15h37.55.489,GLINT,2024.2.4,MacIntel,30.12048193,,,,,,,,,,,,,,,,,,,,pineapple,inanim_natural,1,pineapple,train,cow,bear,bread,corn,car,binoculars,butterfly,1,1,0.9336,,pineapple,inanim_natural,1,natural,1,11,29,8,1,,,,,,
607668ac450fc6e3025a131d,2025-08-20_15h37.55.489,GLINT,2024.2.4,MacIntel,30.12048193,,,,,,,,,,,,,,,,,,,,bread,inanim_natural,6,butterfly,snail,apple,corn,dog,bread,house,airplane,train,6,1,2.1255,,bread,inanim_natural,1,natural,1,12,30,6,1,,,,,,
607668ac450fc6e3025a131d,2025-08-20_15h37.55.489,GLINT,2024.2.4,MacIntel,30.12048193,,,,,,,,,,,,,,,,,,,,mushroom,inanim_natural,7,car,cat,lawnmower,bread,apple,dog,mushroom,binoculars,snail,7,1,2.397,,mushroom,inanim_natural,1,natural,1,13,31,7,1,,,,,,
607668ac450fc6e3025a131d,2025-08-20_15h37.55.489,GLINT,2024.2.4,MacIntel,30.12048193,,,,,,,,,,,,,,,,,,,,binoculars,inanim_artificial,3,apple,avocado,binoculars,pineapple,house,snail,airplane,cat,cow,3,1,1.9362,,binoculars,inanim_artificial,1,natural,1,14,32,13,1,,,,,,
607668ac450fc6e3025a131d,2025-08-20_15h37.55.489,GLINT,2024.2.4,MacIntel,30.12048193,,,,,,,,,,,,,,,,,,,,butterfly,anim_natural,5,car,snail,train,house,butterfly,avocado,bread,apple,cow,5,1,1.1961,,butterfly,anim_natural,1,natural,1,15,33,1,1,,,,,,
607668ac450fc6e3025a131d,2025-08-20_15h37.55.489,GLINT,2024.2.4,MacIntel,30.12048193,,,,,,,,,,,,,,,,,,,,lawnmower,inanim_artificial,3,cow,airplane,lawnmower,mushroom,pineapple,apple,bear,snail,car,3,1,1.2338,,lawnmower,inanim_artificial,1,natural,1,16,34,16,1,,,,,,
607668ac450fc6e3025a131d,2025-08-20_15h37.55.489,GLINT,2024.2.4,MacIntel,30.12048193,,,,,,,,,,,,,,,,,,,,corn,inanim_natural,2,cow,corn,train,snail,airplane,apple,cat,pineapple,lawnmower,2,1,0.8054,,corn,inanim_natural,1,natural,1,17,35,10,1,,,,,,
607668ac450fc6e3025a131d,2025-08-20_15h37.55.489,GLINT,2024.2.4,MacIntel,30.12048193,,,,,,,,,,,,,,,,,,,,binoculars,inanim_artificial,6,train,bread,pineapple,snail,bear,binoculars,airplane,butterfly,mushroom,6,1,2.3719,,binoculars,inanim_artificial,1,natural,2,0,36,13,1,,,,,,
607668ac450fc6e3025a131d,2025-08-20_15h37.55.489,GLINT,2024.2.4,MacIntel,30.12048193,,,,,,,,,,,,,,,,,,,,train,inanim_artificial,5,avocado,mushroom,snail,cow,train,pineapple,binoculars,airplane,cat,5,1,1.7781,,train,inanim_artificial,1,natural,2,1,37,17,1,,,,,,
607668ac450fc6e3025a131d,2025-08-20_15h37.55.489,GLINT,2024.2.4,MacIntel,30.12048193,,,,,,,,,,,,,,,,,,,,corn,inanim_natural,7,cow,dog,train,house,car,mushroom,corn,cat,avocado,7,1,2.9497,,corn,inanim_natural,1,natural,2,2,38,10,1,,,,,,
607668ac450fc6e3025a131d,2025-08-20_15h37.55.489,GLINT,2024.2.4,MacIntel,30.12048193,,,,,,,,,,,,,,,,,,,,mushroom,inanim_natural,9,bear,cat,binoculars,bread,avocado,cow,lawnmower,airplane,mushroom,9,1,2.3873,,mushroom,inanim_natural,1,natural,2,3,39,7,1,,,,,,
607668ac450fc6e3025a131d,2025-08-20_15h37.55.489,GLINT,2024.2.4,MacIntel,30.12048193,,,,,,,,,,,,,,,,,,,,house,inanim_artificial,6,bear,cat,pineapple,bread,mushroom,house,snail,airplane,train,6,1,2.0198,,house,inanim_artificial,1,natural,2,4,40,15,1,,,,,,
607668ac450fc6e3025a131d,2025-08-20_15h37.55.489,GLINT,2024.2.4,MacIntel,30.12048193,,,,,,,,,,,,,,,,,,,,snail,anim_natural,4,cat,bread,cow,snail,airplane,car,mushroom,train,pineapple,4,1,2.9114,,snail,anim_natural,1,natural,2,5,41,5,1,,,,,,
607668ac450fc6e3025a131d,2025-08-20_15h37.55.489,GLINT,2024.2.4,MacIntel,30.12048193,,,,,,,,,,,,,,,,,,,,lawnmower,inanim_artificial,4,pineapple,cat,train,lawnmower,bear,snail,house,corn,mushroom,4,1,1.4216,,lawnmower,inanim_artificial,1,natural,2,6,42,16,1,,,,,,
607668ac450fc6e3025a131d,2025-08-20_15h37.55.489,GLINT,2024.2.4,MacIntel,30.12048193,,,,,,,,,,,,,,,,,,,,car,inanim_artificial,4,butterfly,bear,dog,car,avocado,bread,mushroom,lawnmower,binoculars,4,1,1.3906,,car,inanim_artificial,1,natural,2,7,43,14,1,,,,,,
607668ac450fc6e3025a131d,2025-08-20_15h37.55.489,GLINT,2024.2.4,MacIntel,30.12048193,,,,,,,,,,,,,,,,,,,,dog,anim_natural,8,airplane,house,avocado,bear,mushroom,cow,lawnmower,dog,corn,8,1,2.7895,,dog,anim_natural,1,natural,2,8,44,4,1,,,,,,
607668ac450fc6e3025a131d,2025-08-20_15h37.55.489,GLINT,2024.2.4,MacIntel,30.12048193,,,,,,,,,,,,,,,,,,,,cat,anim_natural,5,bear,pineapple,butterfly,house,cat,lawnmower,airplane,corn,apple,5,1,1.4952,,cat,anim_natural,1,natural,2,9,45,2,1,,,,,,
607668ac450fc6e3025a131d,2025-08-20_15h37.55.489,GLINT,2024.2.4,MacIntel,30.12048193,,,,,,,,,,,,,,,,,,,,airplane,inanim_artificial,3,dog,car,airplane,cow,train,corn,avocado,butterfly,bread,3,1,1.1746,,airplane,inanim_artificial,1,natural,2,10,46,12,1,,,,,,
607668ac450fc6e3025a131d,2025-08-20_15h37.55.489,GLINT,2024.2.4,MacIntel,30.12048193,,,,,,,,,,,,,,,,,,,,butterfly,anim_natural,8,corn,snail,mushroom,train,pineapple,lawnmower,dog,butterfly,car,8,1,1.8672,,butterfly,anim_natural,1,natural,2,11,47,1,1,,,,,,
607668ac450fc6e3025a131d,2025-08-20_15h37.55.489,GLINT,2024.2.4,MacIntel,30.12048193,,,,,,,,,,,,,,,,,,,,avocado,inanim_natural,1,avocado,snail,corn,cow,car,dog,bread,binoculars,house,1,1,0.8293,,avocado,inanim_natural,1,natural,2,12,48,11,1,,,,,,
607668ac450fc6e3025a131d,2025-08-20_15h37.55.489,GLINT,2024.2.4,MacIntel,30.12048193,,,,,,,,,,,,,,,,,,,,pineapple,inanim_natural,5,lawnmower,bear,train,butterfly,pineapple,apple,avocado,car,dog,5,1,1.5078,,pineapple,inanim_natural,1,natural,2,13,49,8,1,,,,,,
607668ac450fc6e3025a131d,2025-08-20_15h37.55.489,GLINT,2024.2.4,MacIntel,30.12048193,,,,,,,,,,,,,,,,,,,,apple,inanim_natural,6,dog,cat,house,bread,lawnmower,apple,mushroom,train,cow,6,1,3.0675,,apple,inanim_natural,1,natural,2,14,50,9,1,,,,,,
607668ac450fc6e3025a131d,2025-08-20_15h37.55.489,GLINT,2024.2.4,MacIntel,30.12048193,,,,,,,,,,,,,,,,,,,,bread,inanim_natural,9,corn,dog,butterfly,binoculars,snail,apple,train,car,bread,9,1,2.3535,,bread,inanim_natural,1,natural,2,15,51,6,1,,,,,,
607668ac450fc6e3025a131d,2025-08-20_15h37.55.489,GLINT,2024.2.4,MacIntel,30.12048193,,,,,,,,,,,,,,,,,,,,cow,anim_natural,7,cat,dog,car,apple,binoculars,mushroom,cow,avocado,train,7,1,2.3023,,cow,anim_natural,1,natural,2,16,52,3,1,,,,,,
607668ac450fc6e3025a131d,2025-08-20_15h37.55.489,GLINT,2024.2.4,MacIntel,30.12048193,,,,,,,,,,,,,,,,,,,,bear,anim_natural,5,train,pineapple,house,car,bear,cat,apple,butterfly,corn,5,1,1.3049,,bear,anim_natural,1,natural,2,17,53,0,1,,,,,,
607668ac450fc6e3025a131d,2025-08-20_15h37.55.489,GLINT,2024.2.4,MacIntel,30.12048193,,,,,,,,,,,,,,,,,,,,apple,inanim_natural,2,house,apple,bear,pineapple,train,mushroom,lawnmower,dog,cat,2,1,1.32,,apple,inanim_natural,1,natural,3,0,54,9,1,,,,,,
607668ac450fc6e3025a131d,2025-08-20_15h37.55.489,GLINT,2024.2.4,MacIntel,30.12048193,,,,,,,,,,,,,,,,,,,,corn,inanim_natural,9,car,dog,airplane,mushroom,train,avocado,bear,cow,corn,9,1,2.4327,,corn,inanim_natural,1,natural,3,1,55,10,1,,,,,,
607668ac450fc6e3025a131d,2025-08-20_15h37.55.489,GLINT,2024.2.4,MacIntel,30.12048193,,,,,,,,,,,,,,,,,,,,bread,inanim_natural,9,train,apple,house,bear,cow,airplane,mushroom,butterfly,bread,9,1,3.2714,,bread,inanim_natural,1,natural,3,2,56,6,1,,,,,,
607668ac450fc6e3025a131d,2025-08-20_15h37.55.489,GLINT,2024.2.4,MacIntel,30.12048193,,,,,,,,,,,,,,,,,,,,mushroom,inanim_natural,6,car,cat,bread,corn,cow,mushroom,airplane,binoculars,dog,6,1,1.6962,,mushroom,inanim_natural,1,natural,3,3,57,7,1,,,,,,
607668ac450fc6e3025a131d,2025-08-20_15h37.55.489,GLINT,2024.2.4,MacIntel,30.12048193,,,,,,,,,,,,,,,,,,,,airplane,inanim_artificial,8,cat,lawnmower,car,pineapple,mushroom,cow,bear,airplane,avocado,8,1,3.1373,,airplane,inanim_artificial,1,natural,3,4,58,12,1,,,,,,
607668ac450fc6e3025a131d,2025-08-20_15h37.55.489,GLINT,2024.2.4,MacIntel,30.12048193,,,,,,,,,,,,,,,,,,,,lawnmower,inanim_artificial,5,pineapple,binoculars,apple,dog,lawnmower,cat,snail,train,corn,5,1,2.0742,,lawnmower,inanim_artificial,1,natural,3,5,59,16,1,,,,,,
607668ac450fc6e3025a131d,2025-08-20_15h37.55.489,GLINT,2024.2.4,MacIntel,30.12048193,,,,,,,,,,,,,,,,,,,,binoculars,inanim_artificial,2,bear,binoculars,pineapple,butterfly,car,apple,dog,house,corn,2,1,1.3269,,binoculars,inanim_artificial,1,natural,3,6,60,13,1,,,,,,
607668ac450fc6e3025a131d,2025-08-20_15h37.55.489,GLINT,2024.2.4,MacIntel,30.12048193,,,,,,,,,,,,,,,,,,,,house,inanim_artificial,4,mushroom,apple,cat,house,lawnmower,bear,bread,train,cow,4,1,3.1082,,house,inanim_artificial,1,natural,3,7,61,15,1,,,,,,
607668ac450fc6e3025a131d,2025-08-20_15h37.55.489,GLINT,2024.2.4,MacIntel,30.12048193,,,,,,,,,,,,,,,,,,,,snail,anim_natural,5,lawnmower,airplane,pineapple,corn,snail,cat,avocado,car,dog,5,1,3.7836,,snail,anim_natural,1,natural,3,8,62,5,1,,,,,,
607668ac450fc6e3025a131d,2025-08-20_15h37.55.489,GLINT,2024.2.4,MacIntel,30.12048193,,,,,,,,,,,,,,,,,,,,train,inanim_artificial,8,airplane,bread,corn,cow,snail,butterfly,lawnmower,train,pineapple,8,1,2.169,,train,inanim_artificial,1,natural,3,9,63,17,1,,,,,,
607668ac450fc6e3025a131d,2025-08-20_15h37.55.489,GLINT,2024.2.4,MacIntel,30.12048193,,,,,,,,,,,,,,,,,,,,cat,anim_natural,3,mushroom,snail,cat,house,dog,binoculars,car,avocado,corn,3,1,1.4174,,cat,anim_natural,1,natural,3,10,64,2,1,,,,,,
607668ac450fc6e3025a131d,2025-08-20_15h37.55.489,GLINT,2024.2.4,MacIntel,30.12048193,,,,,,,,,,,,,,,,,,,,butterfly,anim_natural,9,snail,bread,lawnmower,binoculars,bear,pineapple,corn,train,butterfly,9,1,2.4809,,butterfly,anim_natural,1,natural,3,11,65,1,1,,,,,,
607668ac450fc6e3025a131d,2025-08-20_15h37.55.489,GLINT,2024.2.4,MacIntel,30.12048193,,,,,,,,,,,,,,,,,,,,dog,anim_natural,3,train,binoculars,dog,cat,avocado,pineapple,car,cow,bread,3,1,1.1914,,dog,anim_natural,1,natural,3,12,66,4,1,,,,,,
607668ac450fc6e3025a131d,2025-08-20_15h37.55.489,GLINT,2024.2.4,MacIntel,30.12048193,,,,,,,,,,,,,,,,,,,,bear,anim_natural,8,house,snail,apple,train,pineapple,mushroom,car,bear,dog,8,1,1.5454,,bear,anim_natural,1,natural,3,13,67,0,1,,,,,,
607668ac450fc6e3025a131d,2025-08-20_15h37.55.489,GLINT,2024.2.4,MacIntel,30.12048193,,,,,,,,,,,,,,,,,,,,cow,anim_natural,6,dog,cat,bread,car,pineapple,cow,train,mushroom,lawnmower,6,1,1.7387,,cow,anim_natural,1,natural,3,14,68,3,1,,,,,,
607668ac450fc6e3025a131d,2025-08-20_15h37.55.489,GLINT,2024.2.4,MacIntel,30.12048193,,,,,,,,,,,,,,,,,,,,avocado,inanim_natural,7,house,cat,airplane,apple,snail,train,avocado,butterfly,bread,7,1,2.4129,,avocado,inanim_natural,1,natural,3,15,69,11,1,,,,,,
607668ac450fc6e3025a131d,2025-08-20_15h37.55.489,GLINT,2024.2.4,MacIntel,30.12048193,,,,,,,,,,,,,,,,,,,,car,inanim_artificial,1,car,dog,corn,mushroom,snail,airplane,cow,pineapple,lawnmower,1,1,1.2986,,car,inanim_artificial,1,natural,3,16,70,14,1,,,,,,
607668ac450fc6e3025a131d,2025-08-20_15h37.55.489,GLINT,2024.2.4,MacIntel,30.12048193,,,,,,,,,,,,,,,,,,,,pineapple,inanim_natural,7,cat,mushroom,car,house,binoculars,cow,pineapple,bread,butterfly,7,1,2.169,,pineapple,inanim_natural,1,natural,3,17,71,8,1,,,,,,
607668ac450fc6e3025a131d,2025-08-20_15h37.55.489,GLINT,2024.2.4,MacIntel,30.12048193,,,,,,,,,,,,,,,,,,,,,,,,,,,,,,,,,,,,,,,,,,,,,0,0,0,0,1,natural
607668ac450fc6e3025a131d,2025-08-20_15h37.55.489,GLINT,2024.2.4,MacIntel,30.12048193,,,,,,,,,,,,,,,,,,,,apple,inanim_natural,9,train,lawnmower,bread,butterfly,pineapple,cow,house,bear,apple,9,1,2.4176,,apple,inanim_natural,1,scrambled,0,0,0,9,1,,,,,,
607668ac450fc6e3025a131d,2025-08-20_15h37.55.489,GLINT,2024.2.4,MacIntel,30.12048193,,,,,,,,,,,,,,,,,,,,house,inanim_artificial,7,binoculars,cow,mushroom,lawnmower,bear,apple,house,corn,snail,7,1,1.8912,,house,inanim_artificial,1,scrambled,0,1,1,15,1,,,,,,
607668ac450fc6e3025a131d,2025-08-20_15h37.55.489,GLINT,2024.2.4,MacIntel,30.12048193,,,,,,,,,,,,,,,,,,,,cat,anim_natural,4,bear,mushroom,binoculars,cat,car,bread,airplane,snail,apple,4,1,1.3951,,cat,anim_natural,1,scrambled,0,2,2,2,1,,,,,,
607668ac450fc6e3025a131d,2025-08-20_15h37.55.489,GLINT,2024.2.4,MacIntel,30.12048193,,,,,,,,,,,,,,,,,,,,cow,anim_natural,2,bread,cow,apple,car,dog,airplane,binoculars,pineapple,cat,2,1,1.7931,,cow,anim_natural,1,scrambled,0,3,3,3,1,,,,,,
607668ac450fc6e3025a131d,2025-08-20_15h37.55.489,GLINT,2024.2.4,MacIntel,30.12048193,,,,,,,,,,,,,,,,,,,,avocado,inanim_natural,9,snail,bear,car,apple,cat,lawnmower,mushroom,binoculars,avocado,9,1,2.4122,,avocado,inanim_natural,1,scrambled,0,4,4,11,1,,,,,,
607668ac450fc6e3025a131d,2025-08-20_15h37.55.489,GLINT,2024.2.4,MacIntel,30.12048193,,,,,,,,,,,,,,,,,,,,mushroom,inanim_natural,7,cow,binoculars,avocado,airplane,train,cat,mushroom,butterfly,corn,5,0,2.9418,,train,inanim_artificial,0,scrambled,0,5,5,7,1,,,,,,
607668ac450fc6e3025a131d,2025-08-20_15h37.55.489,GLINT,2024.2.4,MacIntel,30.12048193,,,,,,,,,,,,,,,,,,,,butterfly,anim_natural,6,avocado,corn,cow,apple,car,butterfly,house,train,cat,6,1,1.6327,,butterfly,anim_natural,1,scrambled,0,6,6,1,1,,,,,,
607668ac450fc6e3025a131d,2025-08-20_15h37.55.489,GLINT,2024.2.4,MacIntel,30.12048193,,,,,,,,,,,,,,,,,,,,pineapple,inanim_natural,5,lawnmower,house,bear,butterfly,pineapple,bread,corn,car,cat,5,1,1.8708,,pineapple,inanim_natural,1,scrambled,0,7,7,8,1,,,,,,
607668ac450fc6e3025a131d,2025-08-20_15h37.55.489,GLINT,2024.2.4,MacIntel,30.12048193,,,,,,,,,,,,,,,,,,,,bear,anim_natural,9,binoculars,mushroom,cat,airplane,train,corn,avocado,cow,bear,9,1,1.9828,,bear,anim_natural,1,scrambled,0,8,8,0,1,,,,,,
607668ac450fc6e3025a131d,2025-08-20_15h37.55.489,GLINT,2024.2.4,MacIntel,30.12048193,,,,,,,,,,,,,,,,,,,,snail,anim_natural,3,dog,house,snail,mushroom,corn,lawnmower,cat,bread,binoculars,3,1,2.5687,,snail,anim_natural,1,scrambled,0,9,9,5,1,,,,,,
607668ac450fc6e3025a131d,2025-08-20_15h37.55.489,GLINT,2024.2.4,MacIntel,30.12048193,,,,,,,,,,,,,,,,,,,,binoculars,inanim_artificial,5,butterfly,pineapple,dog,house,binoculars,snail,apple,bread,airplane,5,1,1.8913,,binoculars,inanim_artificial,1,scrambled,0,10,10,13,1,,,,,,
607668ac450fc6e3025a131d,2025-08-20_15h37.55.489,GLINT,2024.2.4,MacIntel,30.12048193,,,,,,,,,,,,,,,,,,,,lawnmower,inanim_artificial,8,airplane,train,corn,bear,avocado,dog,bread,lawnmower,butterfly,8,1,2.4418,,lawnmower,inanim_artificial,1,scrambled,0,11,11,16,1,,,,,,
607668ac450fc6e3025a131d,2025-08-20_15h37.55.489,GLINT,2024.2.4,MacIntel,30.12048193,,,,,,,,,,,,,,,,,,,,dog,anim_natural,3,apple,corn,dog,pineapple,butterfly,snail,train,house,airplane,3,1,1.8957,,dog,anim_natural,1,scrambled,0,12,12,4,1,,,,,,
607668ac450fc6e3025a131d,2025-08-20_15h37.55.489,GLINT,2024.2.4,MacIntel,30.12048193,,,,,,,,,,,,,,,,,,,,corn,inanim_natural,3,dog,car,corn,lawnmower,bear,pineapple,cat,avocado,binoculars,3,1,3.1132,,corn,inanim_natural,1,scrambled,0,13,13,10,1,,,,,,
607668ac450fc6e3025a131d,2025-08-20_15h37.55.489,GLINT,2024.2.4,MacIntel,30.12048193,,,,,,,,,,,,,,,,,,,,car,inanim_artificial,2,cow,car,pineapple,apple,dog,snail,airplane,train,avocado,2,1,0.9146,,car,inanim_artificial,1,scrambled,0,14,14,14,1,,,,,,
607668ac450fc6e3025a131d,2025-08-20_15h37.55.489,GLINT,2024.2.4,MacIntel,30.12048193,,,,,,,,,,,,,,,,,,,,bread,inanim_natural,5,butterfly,car,pineapple,corn,bread,snail,airplane,binoculars,cat,6,0,3.5032,,snail,anim_natural,0,scrambled,0,15,15,6,1,,,,,,
607668ac450fc6e3025a131d,2025-08-20_15h37.55.489,GLINT,2024.2.4,MacIntel,30.12048193,,,,,,,,,,,,,,,,,,,,airplane,inanim_artificial,7,corn,pineapple,avocado,butterfly,house,car,airplane,cow,cat,7,1,2.0641,,airplane,inanim_artificial,1,scrambled,0,16,16,12,1,,,,,,
607668ac450fc6e3025a131d,2025-08-20_15h37.55.489,GLINT,2024.2.4,MacIntel,30.12048193,,,,,,,,,,,,,,,,,,,,train,inanim_artificial,2,bread,train,avocado,butterfly,pineapple,airplane,cat,bear,house,9,0,2.7496,,house,inanim_artificial,1,scrambled,0,17,17,17,1,,,,,,
607668ac450fc6e3025a131d,2025-08-20_15h37.55.489,GLINT,2024.2.4,MacIntel,30.12048193,,,,,,,,,,,,,,,,,,,,car,inanim_artificial,4,house,bread,pineapple,car,mushroom,bear,cat,lawnmower,snail,8,0,2.635,,lawnmower,inanim_artificial,1,scrambled,1,0,18,14,1,,,,,,
607668ac450fc6e3025a131d,2025-08-20_15h37.55.489,GLINT,2024.2.4,MacIntel,30.12048193,,,,,,,,,,,,,,,,,,,,butterfly,anim_natural,1,butterfly,train,cat,apple,bear,binoculars,car,pineapple,bread,1,1,0.9976,,butterfly,anim_natural,1,scrambled,1,1,19,1,1,,,,,,
607668ac450fc6e3025a131d,2025-08-20_15h37.55.489,GLINT,2024.2.4,MacIntel,30.12048193,,,,,,,,,,,,,,,,,,,,avocado,inanim_natural,6,binoculars,snail,bread,dog,house,avocado,airplane,butterfly,corn,6,1,1.9214,,avocado,inanim_natural,1,scrambled,1,2,20,11,1,,,,,,
607668ac450fc6e3025a131d,2025-08-20_15h37.55.489,GLINT,2024.2.4,MacIntel,30.12048193,,,,,,,,,,,,,,,,,,,,house,inanim_artificial,5,bread,cow,avocado,cat,house,mushroom,dog,train,lawnmower,5,1,1.3076,,house,inanim_artificial,1,scrambled,1,3,21,15,1,,,,,,
607668ac450fc6e3025a131d,2025-08-20_15h37.55.489,GLINT,2024.2.4,MacIntel,30.12048193,,,,,,,,,,,,,,,,,,,,airplane,inanim_artificial,8,avocado,bread,dog,car,corn,snail,cow,airplane,binoculars,8,1,1.583,,airplane,inanim_artificial,1,scrambled,1,4,22,12,1,,,,,,
607668ac450fc6e3025a131d,2025-08-20_15h37.55.489,GLINT,2024.2.4,MacIntel,30.12048193,,,,,,,,,,,,,,,,,,,,cow,anim_natural,2,cat,cow,lawnmower,airplane,apple,snail,train,corn,avocado,2,1,0.8265,,cow,anim_natural,1,scrambled,1,5,23,3,1,,,,,,
607668ac450fc6e3025a131d,2025-08-20_15h37.55.489,GLINT,2024.2.4,MacIntel,30.12048193,,,,,,,,,,,,,,,,,,,,bear,anim_natural,2,binoculars,bear,car,house,snail,avocado,apple,corn,butterfly,,0,,,no response,no response,0,scrambled,1,6,24,0,1,,,,,,
607668ac450fc6e3025a131d,2025-08-20_15h37.55.489,GLINT,2024.2.4,MacIntel,30.12048193,,,,,,,,,,,,,,,,,,,,mushroom,inanim_natural,3,apple,cat,mushroom,car,airplane,binoculars,avocado,butterfly,bear,3,1,1.1279,,mushroom,inanim_natural,1,scrambled,1,7,25,7,1,,,,,,
607668ac450fc6e3025a131d,2025-08-20_15h37.55.489,GLINT,2024.2.4,MacIntel,30.12048193,,,,,,,,,,,,,,,,,,,,binoculars,inanim_artificial,6,cat,house,butterfly,pineapple,corn,binoculars,dog,avocado,train,6,1,1.9341,,binoculars,inanim_artificial,1,scrambled,1,8,26,13,1,,,,,,
607668ac450fc6e3025a131d,2025-08-20_15h37.55.489,GLINT,2024.2.4,MacIntel,30.12048193,,,,,,,,,,,,,,,,,,,,dog,anim_natural,2,lawnmower,dog,snail,corn,car,pineapple,airplane,mushroom,butterfly,2,1,2.0679,,dog,anim_natural,1,scrambled,1,9,27,4,1,,,,,,
607668ac450fc6e3025a131d,2025-08-20_15h37.55.489,GLINT,2024.2.4,MacIntel,30.12048193,,,,,,,,,,,,,,,,,,,,pineapple,inanim_natural,1,pineapple,bread,lawnmower,bear,apple,binoculars,house,cat,snail,1,1,1.4114,,pineapple,inanim_natural,1,scrambled,1,10,28,8,1,,,,,,
607668ac450fc6e3025a131d,2025-08-20_15h37.55.489,GLINT,2024.2.4,MacIntel,30.12048193,,,,,,,,,,,,,,,,,,,,bread,inanim_natural,1,bread,binoculars,car,cat,mushroom,pineapple,butterfly,dog,train,1,1,1.419,,bread,inanim_natural,1,scrambled,1,11,29,6,1,,,,,,
607668ac450fc6e3025a131d,2025-08-20_15h37.55.489,GLINT,2024.2.4,MacIntel,30.12048193,,,,,,,,,,,,,,,,,,,,apple,inanim_natural,8,airplane,bread,dog,avocado,train,bear,butterfly,apple,binoculars,8,1,3.9583,,apple,inanim_natural,1,scrambled,1,12,30,9,1,,,,,,
607668ac450fc6e3025a131d,2025-08-20_15h37.55.489,GLINT,2024.2.4,MacIntel,30.12048193,,,,,,,,,,,,,,,,,,,,lawnmower,inanim_artificial,5,pineapple,cow,airplane,house,lawnmower,avocado,cat,mushroom,butterfly,5,1,1.6991,,lawnmower,inanim_artificial,1,scrambled,1,13,31,16,1,,,,,,
607668ac450fc6e3025a131d,2025-08-20_15h37.55.489,GLINT,2024.2.4,MacIntel,30.12048193,,,,,,,,,,,,,,,,,,,,cat,anim_natural,4,mushroom,house,corn,cat,bread,dog,lawnmower,binoculars,cow,4,1,1.5247,,cat,anim_natural,1,scrambled,1,14,32,2,1,,,,,,
607668ac450fc6e3025a131d,2025-08-20_15h37.55.489,GLINT,2024.2.4,MacIntel,30.12048193,,,,,,,,,,,,,,,,,,,,corn,inanim_natural,8,snail,cat,train,apple,bread,car,binoculars,corn,butterfly,8,1,2.6748,,corn,inanim_natural,1,scrambled,1,15,33,10,1,,,,,,
607668ac450fc6e3025a131d,2025-08-20_15h37.55.489,GLINT,2024.2.4,MacIntel,30.12048193,,,,,,,,,,,,,,,,,,,,train,inanim_artificial,9,dog,corn,cow,bread,pineapple,house,lawnmower,butterfly,train,9,1,2.4746,,train,inanim_artificial,1,scrambled,1,16,34,17,1,,,,,,
607668ac450fc6e3025a131d,2025-08-20_15h37.55.489,GLINT,2024.2.4,MacIntel,30.12048193,,,,,,,,,,,,,,,,,,,,snail,anim_natural,6,binoculars,avocado,mushroom,car,pineapple,snail,butterfly,dog,airplane,6,1,1.7914,,snail,anim_natural,1,scrambled,1,17,35,5,1,,,,,,
607668ac450fc6e3025a131d,2025-08-20_15h37.55.489,GLINT,2024.2.4,MacIntel,30.12048193,,,,,,,,,,,,,,,,,,,,lawnmower,inanim_artificial,2,butterfly,lawnmower,bear,avocado,binoculars,snail,corn,bread,airplane,2,1,1.2184,,lawnmower,inanim_artificial,1,scrambled,2,0,36,16,1,,,,,,
607668ac450fc6e3025a131d,2025-08-20_15h37.55.489,GLINT,2024.2.4,MacIntel,30.12048193,,,,,,,,,,,,,,,,,,,,pineapple,inanim_natural,9,cat,binoculars,butterfly,corn,airplane,mushroom,train,snail,pineapple,8,0,3.079,,snail,anim_natural,0,scrambled,2,1,37,8,1,,,,,,
607668ac450fc6e3025a131d,2025-08-20_15h37.55.489,GLINT,2024.2.4,MacIntel,30.12048193,,,,,,,,,,,,,,,,,,,,cow,anim_natural,4,dog,corn,airplane,cow,avocado,train,house,pineapple,cat,4,1,1.5254,,cow,anim_natural,1,scrambled,2,2,38,3,1,,,,,,
607668ac450fc6e3025a131d,2025-08-20_15h37.55.489,GLINT,2024.2.4,MacIntel,30.12048193,,,,,,,,,,,,,,,,,,,,train,inanim_artificial,7,corn,mushroom,pineapple,binoculars,butterfly,airplane,train,cat,cow,7,1,2.792,,train,inanim_artificial,1,scrambled,2,3,39,17,1,,,,,,
607668ac450fc6e3025a131d,2025-08-20_15h37.55.489,GLINT,2024.2.4,MacIntel,30.12048193,,,,,,,,,,,,,,,,,,,,apple,inanim_natural,8,lawnmower,airplane,cat,binoculars,butterfly,cow,mushroom,apple,pineapple,8,1,2.7665,,apple,inanim_natural,1,scrambled,2,4,40,9,1,,,,,,
607668ac450fc6e3025a131d,2025-08-20_15h37.55.489,GLINT,2024.2.4,MacIntel,30.12048193,,,,,,,,,,,,,,,,,,,,mushroom,inanim_natural,7,snail,binoculars,train,cat,bread,lawnmower,mushroom,cow,pineapple,7,1,2.8086,,mushroom,inanim_natural,1,scrambled,2,5,41,7,1,,,,,,
607668ac450fc6e3025a131d,2025-08-20_15h37.55.489,GLINT,2024.2.4,MacIntel,30.12048193,,,,,,,,,,,,,,,,,,,,snail,anim_natural,6,cow,train,cat,corn,airplane,snail,bread,house,pineapple,6,1,2.9358,,snail,anim_natural,1,scrambled,2,6,42,5,1,,,,,,
607668ac450fc6e3025a131d,2025-08-20_15h37.55.489,GLINT,2024.2.4,MacIntel,30.12048193,,,,,,,,,,,,,,,,,,,,bear,anim_natural,3,cow,pineapple,bear,dog,car,avocado,train,corn,airplane,3,1,1.3648,,bear,anim_natural,1,scrambled,2,7,43,0,1,,,,,,
607668ac450fc6e3025a131d,2025-08-20_15h37.55.489,GLINT,2024.2.4,MacIntel,30.12048193,,,,,,,,,,,,,,,,,,,,binoculars,inanim_artificial,7,avocado,corn,pineapple,bear,lawnmower,dog,binoculars,cow,car,7,1,2.5904,,binoculars,inanim_artificial,1,scrambled,2,8,44,13,1,,,,,,
607668ac450fc6e3025a131d,2025-08-20_15h37.55.489,GLINT,2024.2.4,MacIntel,30.12048193,,,,,,,,,,,,,,,,,,,,cat,anim_natural,5,bear,car,pineapple,avocado,cat,snail,mushroom,binoculars,house,5,1,1.7079,,cat,anim_natural,1,scrambled,2,9,45,2,1,,,,,,
607668ac450fc6e3025a131d,2025-08-20_15h37.55.489,GLINT,2024.2.4,MacIntel,30.12048193,,,,,,,,,,,,,,,,,,,,avocado,inanim_natural,8,train,bear,house,apple,corn,binoculars,dog,avocado,cat,8,1,3.8174,,avocado,inanim_natural,1,scrambled,2,10,46,11,1,,,,,,
607668ac450fc6e3025a131d,2025-08-20_15h37.55.489,GLINT,2024.2.4,MacIntel,30.12048193,,,,,,,,,,,,,,,,,,,,corn,inanim_natural,8,cat,mushroom,train,snail,lawnmower,bread,bear,corn,house,8,1,2.1131,,corn,inanim_natural,1,scrambled,2,11,47,10,1,,,,,,
607668ac450fc6e3025a131d,2025-08-20_15h37.55.489,GLINT,2024.2.4,MacIntel,30.12048193,,,,,,,,,,,,,,,,,,,,house,inanim_artificial,4,avocado,bread,bear,house,lawnmower,binoculars,apple,snail,dog,4,1,2.2817,,house,inanim_artificial,1,scrambled,2,12,48,15,1,,,,,,
607668ac450fc6e3025a131d,2025-08-20_15h37.55.489,GLINT,2024.2.4,MacIntel,30.12048193,,,,,,,,,,,,,,,,,,,,car,inanim_artificial,7,train,snail,butterfly,bread,dog,pineapple,car,house,avocado,7,1,1.8891,,car,inanim_artificial,1,scrambled,2,13,49,14,1,,,,,,
607668ac450fc6e3025a131d,2025-08-20_15h37.55.489,GLINT,2024.2.4,MacIntel,30.12048193,,,,,,,,,,,,,,,,,,,,dog,anim_natural,3,bread,butterfly,dog,airplane,avocado,cat,mushroom,house,train,6,0,2.6078,,cat,anim_natural,1,scrambled,2,14,50,4,1,,,,,,
607668ac450fc6e3025a131d,2025-08-20_15h37.55.489,GLINT,2024.2.4,MacIntel,30.12048193,,,,,,,,,,,,,,,,,,,,butterfly,anim_natural,5,apple,pineapple,lawnmower,airplane,butterfly,house,cow,cat,bread,5,1,2.5286,,butterfly,anim_natural,1,scrambled,2,15,51,1,1,,,,,,
607668ac450fc6e3025a131d,2025-08-20_15h37.55.489,GLINT,2024.2.4,MacIntel,30.12048193,,,,,,,,,,,,,,,,,,,,airplane,inanim_artificial,8,avocado,snail,butterfly,corn,lawnmower,bread,house,airplane,bear,8,1,2.7799,,airplane,inanim_artificial,1,scrambled,2,16,52,12,1,,,,,,
607668ac450fc6e3025a131d,2025-08-20_15h37.55.489,GLINT,2024.2.4,MacIntel,30.12048193,,,,,,,,,,,,,,,,,,,,bread,inanim_natural,9,cow,car,cat,train,avocado,mushroom,house,bear,bread,9,1,2.6103,,bread,inanim_natural,1,scrambled,2,17,53,6,1,,,,,,
607668ac450fc6e3025a131d,2025-08-20_15h37.55.489,GLINT,2024.2.4,MacIntel,30.12048193,,,,,,,,,,,,,,,,,,,,lawnmower,inanim_artificial,5,cat,avocado,airplane,corn,lawnmower,mushroom,bear,dog,car,5,1,1.6336,,lawnmower,inanim_artificial,1,scrambled,3,0,54,16,1,,,,,,
607668ac450fc6e3025a131d,2025-08-20_15h37.55.489,GLINT,2024.2.4,MacIntel,30.12048193,,,,,,,,,,,,,,,,,,,,cat,anim_natural,4,corn,avocado,binoculars,cat,train,pineapple,snail,lawnmower,cow,4,1,1.2615,,cat,anim_natural,1,scrambled,3,1,55,2,1,,,,,,
607668ac450fc6e3025a131d,2025-08-20_15h37.55.489,GLINT,2024.2.4,MacIntel,30.12048193,,,,,,,,,,,,,,,,,,,,bread,inanim_natural,9,avocado,train,cat,house,apple,snail,bear,car,bread,9,1,2.7383,,bread,inanim_natural,1,scrambled,3,2,56,6,1,,,,,,
607668ac450fc6e3025a131d,2025-08-20_15h37.55.489,GLINT,2024.2.4,MacIntel,30.12048193,,,,,,,,,,,,,,,,,,,,bear,anim_natural,1,bear,mushroom,binoculars,bread,car,dog,train,snail,avocado,1,1,3.3486,,bear,anim_natural,1,scrambled,3,3,57,0,1,,,,,,
607668ac450fc6e3025a131d,2025-08-20_15h37.55.489,GLINT,2024.2.4,MacIntel,30.12048193,,,,,,,,,,,,,,,,,,,,car,inanim_artificial,9,avocado,cat,bread,snail,lawnmower,bear,train,mushroom,car,9,1,2.4396,,car,inanim_artificial,1,scrambled,3,4,58,14,1,,,,,,
607668ac450fc6e3025a131d,2025-08-20_15h37.55.489,GLINT,2024.2.4,MacIntel,30.12048193,,,,,,,,,,,,,,,,,,,,corn,inanim_natural,7,dog,pineapple,airplane,car,bear,bread,corn,cat,binoculars,7,1,2.4749,,corn,inanim_natural,1,scrambled,3,5,59,10,1,,,,,,
607668ac450fc6e3025a131d,2025-08-20_15h37.55.489,GLINT,2024.2.4,MacIntel,30.12048193,,,,,,,,,,,,,,,,,,,,train,inanim_artificial,6,lawnmower,bread,butterfly,cat,snail,train,corn,pineapple,airplane,6,1,1.5462,,train,inanim_artificial,1,scrambled,3,6,60,17,1,,,,,,
607668ac450fc6e3025a131d,2025-08-20_15h37.55.489,GLINT,2024.2.4,MacIntel,30.12048193,,,,,,,,,,,,,,,,,,,,apple,inanim_natural,3,corn,house,apple,snail,bear,butterfly,train,bread,airplane,3,1,3.1308,,apple,inanim_natural,1,scrambled,3,7,61,9,1,,,,,,
607668ac450fc6e3025a131d,2025-08-20_15h37.55.489,GLINT,2024.2.4,MacIntel,30.12048193,,,,,,,,,,,,,,,,,,,,dog,anim_natural,3,cow,train,dog,bread,house,mushroom,pineapple,cat,car,8,0,1.9945,,cat,anim_natural,1,scrambled,3,8,62,4,1,,,,,,
607668ac450fc6e3025a131d,2025-08-20_15h37.55.489,GLINT,2024.2.4,MacIntel,30.12048193,,,,,,,,,,,,,,,,,,,,butterfly,anim_natural,9,lawnmower,mushroom,binoculars,bear,pineapple,avocado,cat,airplane,butterfly,9,1,2.221,,butterfly,anim_natural,1,scrambled,3,9,63,1,1,,,,,,
607668ac450fc6e3025a131d,2025-08-20_15h37.55.489,GLINT,2024.2.4,MacIntel,30.12048193,,,,,,,,,,,,,,,,,,,,airplane,inanim_artificial,4,car,dog,mushroom,airplane,pineapple,binoculars,corn,cat,cow,4,1,2.2148,,airplane,inanim_artificial,1,scrambled,3,10,64,12,1,,,,,,
607668ac450fc6e3025a131d,2025-08-20_15h37.55.489,GLINT,2024.2.4,MacIntel,30.12048193,,,,,,,,,,,,,,,,,,,,avocado,inanim_natural,8,cat,snail,bear,lawnmower,pineapple,corn,house,avocado,airplane,8,1,3.5689,,avocado,inanim_natural,1,scrambled,3,11,65,11,1,,,,,,
607668ac450fc6e3025a131d,2025-08-20_15h37.55.489,GLINT,2024.2.4,MacIntel,30.12048193,,,,,,,,,,,,,,,,,,,,cow,anim_natural,3,bear,dog,cow,avocado,lawnmower,corn,pineapple,house,train,3,1,2.8971,,cow,anim_natural,1,scrambled,3,12,66,3,1,,,,,,
607668ac450fc6e3025a131d,2025-08-20_15h37.55.489,GLINT,2024.2.4,MacIntel,30.12048193,,,,,,,,,,,,,,,,,,,,house,inanim_artificial,1,house,binoculars,avocado,snail,cat,car,corn,dog,bread,1,1,1.3189,,house,inanim_artificial,1,scrambled,3,13,67,15,1,,,,,,
607668ac450fc6e3025a131d,2025-08-20_15h37.55.489,GLINT,2024.2.4,MacIntel,30.12048193,,,,,,,,,,,,,,,,,,,,mushroom,inanim_natural,4,binoculars,bread,cow,mushroom,airplane,snail,car,corn,bear,4,1,1.566,,mushroom,inanim_natural,1,scrambled,3,14,68,7,1,,,,,,
607668ac450fc6e3025a131d,2025-08-20_15h37.55.489,GLINT,2024.2.4,MacIntel,30.12048193,,,,,,,,,,,,,,,,,,,,pineapple,inanim_natural,2,airplane,pineapple,avocado,car,cat,binoculars,snail,butterfly,apple,9,0,4.1974,,apple,inanim_natural,1,scrambled,3,15,69,8,1,,,,,,
607668ac450fc6e3025a131d,2025-08-20_15h37.55.489,GLINT,2024.2.4,MacIntel,30.12048193,,,,,,,,,,,,,,,,,,,,binoculars,inanim_artificial,3,house,bread,binoculars,cat,corn,pineapple,airplane,bear,butterfly,3,1,1.7016,,binoculars,inanim_artificial,1,scrambled,3,16,70,13,1,,,,,,
607668ac450fc6e3025a131d,2025-08-20_15h37.55.489,GLINT,2024.2.4,MacIntel,30.12048193,,,,,,,,,,,,,,,,,,,,snail,anim_natural,2,mushroom,snail,train,bread,cat,binoculars,dog,car,corn,2,1,0.9947,,snail,anim_natural,1,scrambled,3,17,71,5,1,,,,,,
607668ac450fc6e3025a131d,2025-08-20_15h37.55.489,GLINT,2024.2.4,MacIntel,30.12048193,,,,,,,,,,,,,,,,,,,,,,,,,,,,,,,,,,,,,,,,,,,,,0,1,1,2,1,scrambled
607668ac450fc6e3025a131d,2025-08-20_15h37.55.489,GLINT,2024.2.4,MacIntel,30.12048193,,,,,,,,,,,,,,,,,,,,car,inanim_artificial,7,cow,mushroom,bear,airplane,train,pineapple,car,corn,dog,2,0,2.4963,,mushroom,inanim_natural,0,line_drawing,0,0,0,14,1,,,,,,
607668ac450fc6e3025a131d,2025-08-20_15h37.55.489,GLINT,2024.2.4,MacIntel,30.12048193,,,,,,,,,,,,,,,,,,,,snail,anim_natural,4,apple,cat,house,snail,dog,bread,avocado,airplane,lawnmower,4,1,2.003,,snail,anim_natural,1,line_drawing,0,1,1,5,1,,,,,,
607668ac450fc6e3025a131d,2025-08-20_15h37.55.489,GLINT,2024.2.4,MacIntel,30.12048193,,,,,,,,,,,,,,,,,,,,avocado,inanim_natural,6,apple,cow,lawnmower,bread,house,avocado,bear,butterfly,train,6,1,2.78,,avocado,inanim_natural,1,line_drawing,0,2,2,11,1,,,,,,
607668ac450fc6e3025a131d,2025-08-20_15h37.55.489,GLINT,2024.2.4,MacIntel,30.12048193,,,,,,,,,,,,,,,,,,,,butterfly,anim_natural,3,apple,corn,butterfly,cat,snail,binoculars,mushroom,car,airplane,3,1,1.284,,butterfly,anim_natural,1,line_drawing,0,3,3,1,1,,,,,,
607668ac450fc6e3025a131d,2025-08-20_15h37.55.489,GLINT,2024.2.4,MacIntel,30.12048193,,,,,,,,,,,,,,,,,,,,pineapple,inanim_natural,3,corn,cow,pineapple,bread,butterfly,binoculars,dog,lawnmower,airplane,3,1,2.426,,pineapple,inanim_natural,1,line_drawing,0,4,4,8,1,,,,,,
607668ac450fc6e3025a131d,2025-08-20_15h37.55.489,GLINT,2024.2.4,MacIntel,30.12048193,,,,,,,,,,,,,,,,,,,,bread,inanim_natural,9,pineapple,train,butterfly,airplane,snail,lawnmower,avocado,bear,bread,9,1,2.7252,,bread,inanim_natural,1,line_drawing,0,5,5,6,1,,,,,,
607668ac450fc6e3025a131d,2025-08-20_15h37.55.489,GLINT,2024.2.4,MacIntel,30.12048193,,,,,,,,,,,,,,,,,,,,apple,inanim_natural,6,cat,airplane,dog,car,train,apple,snail,bread,avocado,8,0,4.6385,,bread,inanim_natural,1,line_drawing,0,6,6,9,1,,,,,,
607668ac450fc6e3025a131d,2025-08-20_15h37.55.489,GLINT,2024.2.4,MacIntel,30.12048193,,,,,,,,,,,,,,,,,,,,airplane,inanim_artificial,3,avocado,car,airplane,mushroom,apple,butterfly,cat,binoculars,dog,3,1,0.8948,,airplane,inanim_artificial,1,line_drawing,0,7,7,12,1,,,,,,
607668ac450fc6e3025a131d,2025-08-20_15h37.55.489,GLINT,2024.2.4,MacIntel,30.12048193,,,,,,,,,,,,,,,,,,,,train,inanim_artificial,6,binoculars,pineapple,corn,cat,car,train,dog,bear,apple,6,1,2,,train,inanim_artificial,1,line_drawing,0,8,8,17,1,,,,,,
607668ac450fc6e3025a131d,2025-08-20_15h37.55.489,GLINT,2024.2.4,MacIntel,30.12048193,,,,,,,,,,,,,,,,,,,,binoculars,inanim_artificial,9,airplane,butterfly,corn,dog,house,apple,cat,avocado,binoculars,9,1,2.3584,,binoculars,inanim_artificial,1,line_drawing,0,9,9,13,1,,,,,,
607668ac450fc6e3025a131d,2025-08-20_15h37.55.489,GLINT,2024.2.4,MacIntel,30.12048193,,,,,,,,,,,,,,,,,,,,bear,anim_natural,2,car,bear,house,butterfly,apple,cat,binoculars,mushroom,pineapple,2,1,1.2603,,bear,anim_natural,1,line_drawing,0,10,10,0,1,,,,,,
607668ac450fc6e3025a131d,2025-08-20_15h37.55.489,GLINT,2024.2.4,MacIntel,30.12048193,,,,,,,,,,,,,,,,,,,,cow,anim_natural,2,car,cow,lawnmower,apple,corn,cat,bread,bear,house,2,1,1.1302,,cow,anim_natural,1,line_drawing,0,11,11,3,1,,,,,,
607668ac450fc6e3025a131d,2025-08-20_15h37.55.489,GLINT,2024.2.4,MacIntel,30.12048193,,,,,,,,,,,,,,,,,,,,house,inanim_artificial,8,cat,dog,snail,corn,avocado,airplane,bread,house,train,8,1,2.3039,,house,inanim_artificial,1,line_drawing,0,12,12,15,1,,,,,,
607668ac450fc6e3025a131d,2025-08-20_15h37.55.489,GLINT,2024.2.4,MacIntel,30.12048193,,,,,,,,,,,,,,,,,,,,mushroom,inanim_natural,8,butterfly,dog,airplane,snail,bread,house,lawnmower,mushroom,apple,8,1,2.4343,,mushroom,inanim_natural,1,line_drawing,0,13,13,7,1,,,,,,
607668ac450fc6e3025a131d,2025-08-20_15h37.55.489,GLINT,2024.2.4,MacIntel,30.12048193,,,,,,,,,,,,,,,,,,,,dog,anim_natural,4,car,snail,binoculars,dog,apple,avocado,pineapple,butterfly,lawnmower,4,1,1.6316,,dog,anim_natural,1,line_drawing,0,14,14,4,1,,,,,,
607668ac450fc6e3025a131d,2025-08-20_15h37.55.489,GLINT,2024.2.4,MacIntel,30.12048193,,,,,,,,,,,,,,,,,,,,lawnmower,inanim_artificial,6,snail,avocado,mushroom,butterfly,bear,lawnmower,car,corn,binoculars,6,1,1.9162,,lawnmower,inanim_artificial,1,line_drawing,0,15,15,16,1,,,,,,
607668ac450fc6e3025a131d,2025-08-20_15h37.55.489,GLINT,2024.2.4,MacIntel,30.12048193,,,,,,,,,,,,,,,,,,,,corn,inanim_natural,3,mushroom,cow,corn,dog,binoculars,apple,lawnmower,airplane,butterfly,3,1,1.7027,,corn,inanim_natural,1,line_drawing,0,16,16,10,1,,,,,,
607668ac450fc6e3025a131d,2025-08-20_15h37.55.489,GLINT,2024.2.4,MacIntel,30.12048193,,,,,,,,,,,,,,,,,,,,cat,anim_natural,4,lawnmower,bear,corn,cat,butterfly,mushroom,train,house,bread,2,0,1.1295,,bear,anim_natural,1,line_drawing,0,17,17,2,1,,,,,,
607668ac450fc6e3025a131d,2025-08-20_15h37.55.489,GLINT,2024.2.4,MacIntel,30.12048193,,,,,,,,,,,,,,,,,,,,car,inanim_artificial,9,bear,corn,dog,mushroom,cow,pineapple,house,binoculars,car,9,1,1.9603,,car,inanim_artificial,1,line_drawing,1,0,18,14,1,,,,,,
607668ac450fc6e3025a131d,2025-08-20_15h37.55.489,GLINT,2024.2.4,MacIntel,30.12048193,,,,,,,,,,,,,,,,,,,,butterfly,anim_natural,2,bread,butterfly,house,airplane,bear,corn,snail,car,apple,2,1,0.9555,,butterfly,anim_natural,1,line_drawing,1,1,19,1,1,,,,,,
607668ac450fc6e3025a131d,2025-08-20_15h37.55.489,GLINT,2024.2.4,MacIntel,30.12048193,,,,,,,,,,,,,,,,,,,,house,inanim_artificial,2,mushroom,house,cow,car,snail,bread,pineapple,cat,airplane,2,1,1.0627,,house,inanim_artificial,1,line_drawing,1,2,20,15,1,,,,,,
607668ac450fc6e3025a131d,2025-08-20_15h37.55.489,GLINT,2024.2.4,MacIntel,30.12048193,,,,,,,,,,,,,,,,,,,,bear,anim_natural,5,house,lawnmower,dog,bread,bear,airplane,corn,snail,mushroom,5,1,1.3004,,bear,anim_natural,1,line_drawing,1,3,21,0,1,,,,,,
607668ac450fc6e3025a131d,2025-08-20_15h37.55.489,GLINT,2024.2.4,MacIntel,30.12048193,,,,,,,,,,,,,,,,,,,,bread,inanim_natural,3,mushroom,cow,bread,airplane,lawnmower,corn,binoculars,snail,dog,3,1,2.335,,bread,inanim_natural,1,line_drawing,1,4,22,6,1,,,,,,
607668ac450fc6e3025a131d,2025-08-20_15h37.55.489,GLINT,2024.2.4,MacIntel,30.12048193,,,,,,,,,,,,,,,,,,,,dog,anim_natural,5,bear,corn,butterfly,binoculars,dog,apple,house,avocado,lawnmower,5,1,3.4184,,dog,anim_natural,1,line_drawing,1,5,23,4,1,,,,,,
607668ac450fc6e3025a131d,2025-08-20_15h37.55.489,GLINT,2024.2.4,MacIntel,30.12048193,,,,,,,,,,,,,,,,,,,,train,inanim_artificial,3,snail,bread,train,pineapple,lawnmower,corn,dog,butterfly,binoculars,3,1,3.716,,train,inanim_artificial,1,line_drawing,1,6,24,17,1,,,,,,
607668ac450fc6e3025a131d,2025-08-20_15h37.55.489,GLINT,2024.2.4,MacIntel,30.12048193,,,,,,,,,,,,,,,,,,,,binoculars,inanim_artificial,3,train,car,binoculars,snail,dog,corn,pineapple,apple,cow,3,1,1.6756,,binoculars,inanim_artificial,1,line_drawing,1,7,25,13,1,,,,,,
607668ac450fc6e3025a131d,2025-08-20_15h37.55.489,GLINT,2024.2.4,MacIntel,30.12048193,,,,,,,,,,,,,,,,,,,,pineapple,inanim_natural,2,house,pineapple,car,mushroom,avocado,butterfly,snail,binoculars,cat,2,1,0.9801,,pineapple,inanim_natural,1,line_drawing,1,8,26,8,1,,,,,,
607668ac450fc6e3025a131d,2025-08-20_15h37.55.489,GLINT,2024.2.4,MacIntel,30.12048193,,,,,,,,,,,,,,,,,,,,avocado,inanim_natural,1,avocado,bread,airplane,butterfly,train,corn,house,bear,cat,1,1,1.5003,,avocado,inanim_natural,1,line_drawing,1,9,27,11,1,,,,,,
607668ac450fc6e3025a131d,2025-08-20_15h37.55.489,GLINT,2024.2.4,MacIntel,30.12048193,,,,,,,,,,,,,,,,,,,,airplane,inanim_artificial,3,train,snail,airplane,house,cat,mushroom,bear,bread,pineapple,3,1,1.8293,,airplane,inanim_artificial,1,line_drawing,1,10,28,12,1,,,,,,
607668ac450fc6e3025a131d,2025-08-20_15h37.55.489,GLINT,2024.2.4,MacIntel,30.12048193,,,,,,,,,,,,,,,,,,,,mushroom,inanim_natural,8,cat,binoculars,cow,train,pineapple,butterfly,house,mushroom,avocado,8,1,2.2781,,mushroom,inanim_natural,1,line_drawing,1,11,29,7,1,,,,,,
607668ac450fc6e3025a131d,2025-08-20_15h37.55.489,GLINT,2024.2.4,MacIntel,30.12048193,,,,,,,,,,,,,,,,,,,,corn,inanim_natural,8,avocado,butterfly,cat,cow,airplane,lawnmower,train,corn,apple,8,1,2.3613,,corn,inanim_natural,1,line_drawing,1,12,30,10,1,,,,,,
607668ac450fc6e3025a131d,2025-08-20_15h37.55.489,GLINT,2024.2.4,MacIntel,30.12048193,,,,,,,,,,,,,,,,,,,,snail,anim_natural,9,bear,apple,cat,car,pineapple,binoculars,bread,lawnmower,snail,9,1,2.6591,,snail,anim_natural,1,line_drawing,1,13,31,5,1,,,,,,
607668ac450fc6e3025a131d,2025-08-20_15h37.55.489,GLINT,2024.2.4,MacIntel,30.12048193,,,,,,,,,,,,,,,,,,,,cat,anim_natural,9,bear,pineapple,house,airplane,apple,bread,train,snail,cat,1,0,0.9611,,bear,anim_natural,1,line_drawing,1,14,32,2,1,,,,,,
607668ac450fc6e3025a131d,2025-08-20_15h37.55.489,GLINT,2024.2.4,MacIntel,30.12048193,,,,,,,,,,,,,,,,,,,,lawnmower,inanim_artificial,6,house,bread,snail,corn,apple,lawnmower,dog,cow,airplane,6,1,1.5488,,lawnmower,inanim_artificial,1,line_drawing,1,15,33,16,1,,,,,,
607668ac450fc6e3025a131d,2025-08-20_15h37.55.489,GLINT,2024.2.4,MacIntel,30.12048193,,,,,,,,,,,,,,,,,,,,cow,anim_natural,4,apple,cat,snail,cow,avocado,house,lawnmower,mushroom,airplane,4,1,1.3489,,cow,anim_natural,1,line_drawing,1,16,34,3,1,,,,,,
607668ac450fc6e3025a131d,2025-08-20_15h37.55.489,GLINT,2024.2.4,MacIntel,30.12048193,,,,,,,,,,,,,,,,,,,,apple,inanim_natural,8,cow,bread,train,snail,lawnmower,mushroom,house,apple,dog,8,1,2.3099,,apple,inanim_natural,1,line_drawing,1,17,35,9,1,,,,,,
607668ac450fc6e3025a131d,2025-08-20_15h37.55.489,GLINT,2024.2.4,MacIntel,30.12048193,,,,,,,,,,,,,,,,,,,,mushroom,inanim_natural,7,car,snail,cow,bear,pineapple,airplane,mushroom,lawnmower,avocado,7,1,2.0727,,mushroom,inanim_natural,1,line_drawing,2,0,36,7,1,,,,,,
607668ac450fc6e3025a131d,2025-08-20_15h37.55.489,GLINT,2024.2.4,MacIntel,30.12048193,,,,,,,,,,,,,,,,,,,,train,inanim_artificial,3,mushroom,snail,train,bear,dog,pineapple,car,binoculars,avocado,3,1,1.0457,,train,inanim_artificial,1,line_drawing,2,1,37,17,1,,,,,,
607668ac450fc6e3025a131d,2025-08-20_15h37.55.489,GLINT,2024.2.4,MacIntel,30.12048193,,,,,,,,,,,,,,,,,,,,snail,anim_natural,2,bread,snail,house,lawnmower,cow,mushroom,butterfly,avocado,car,2,1,1.0019,,snail,anim_natural,1,line_drawing,2,2,38,5,1,,,,,,
607668ac450fc6e3025a131d,2025-08-20_15h37.55.489,GLINT,2024.2.4,MacIntel,30.12048193,,,,,,,,,,,,,,,,,,,,house,inanim_artificial,9,binoculars,pineapple,train,cat,apple,bear,snail,corn,house,9,1,2.2809,,house,inanim_artificial,1,line_drawing,2,3,39,15,1,,,,,,
607668ac450fc6e3025a131d,2025-08-20_15h37.55.489,GLINT,2024.2.4,MacIntel,30.12048193,,,,,,,,,,,,,,,,,,,,car,inanim_artificial,9,snail,corn,avocado,cat,binoculars,cow,house,pineapple,car,9,1,2.0706,,car,inanim_artificial,1,line_drawing,2,4,40,14,1,,,,,,
607668ac450fc6e3025a131d,2025-08-20_15h37.55.489,GLINT,2024.2.4,MacIntel,30.12048193,,,,,,,,,,,,,,,,,,,,corn,inanim_natural,4,apple,bear,binoculars,corn,butterfly,cow,mushroom,house,train,4,1,2.0909,,corn,inanim_natural,1,line_drawing,2,5,41,10,1,,,,,,
607668ac450fc6e3025a131d,2025-08-20_15h37.55.489,GLINT,2024.2.4,MacIntel,30.12048193,,,,,,,,,,,,,,,,,,,,pineapple,inanim_natural,7,binoculars,airplane,butterfly,mushroom,cat,apple,pineapple,car,dog,7,1,2.5908,,pineapple,inanim_natural,1,line_drawing,2,6,42,8,1,,,,,,
607668ac450fc6e3025a131d,2025-08-20_15h37.55.489,GLINT,2024.2.4,MacIntel,30.12048193,,,,,,,,,,,,,,,,,,,,butterfly,anim_natural,2,mushroom,butterfly,avocado,bear,car,lawnmower,snail,apple,house,7,0,2.7858,,snail,anim_natural,1,line_drawing,2,7,43,1,1,,,,,,
607668ac450fc6e3025a131d,2025-08-20_15h37.55.489,GLINT,2024.2.4,MacIntel,30.12048193,,,,,,,,,,,,,,,,,,,,bear,anim_natural,4,apple,lawnmower,car,bear,mushroom,cow,avocado,binoculars,cat,4,1,2.2673,,bear,anim_natural,1,line_drawing,2,8,44,0,1,,,,,,
607668ac450fc6e3025a131d,2025-08-20_15h37.55.489,GLINT,2024.2.4,MacIntel,30.12048193,,,,,,,,,,,,,,,,,,,,apple,inanim_natural,2,corn,apple,train,mushroom,binoculars,cat,lawnmower,butterfly,cow,2,1,1.4732,,apple,inanim_natural,1,line_drawing,2,9,45,9,1,,,,,,
607668ac450fc6e3025a131d,2025-08-20_15h37.55.489,GLINT,2024.2.4,MacIntel,30.12048193,,,,,,,,,,,,,,,,,,,,avocado,inanim_natural,7,apple,dog,binoculars,mushroom,airplane,cat,avocado,train,bear,4,0,4.66,,mushroom,inanim_natural,1,line_drawing,2,10,46,11,1,,,,,,
607668ac450fc6e3025a131d,2025-08-20_15h37.55.489,GLINT,2024.2.4,MacIntel,30.12048193,,,,,,,,,,,,,,,,,,,,airplane,inanim_artificial,9,corn,snail,lawnmower,car,dog,mushroom,bear,bread,airplane,9,1,2.813,,airplane,inanim_artificial,1,line_drawing,2,11,47,12,1,,,,,,
607668ac450fc6e3025a131d,2025-08-20_15h37.55.489,GLINT,2024.2.4,MacIntel,30.12048193,,,,,,,,,,,,,,,,,,,,cat,anim_natural,6,corn,binoculars,bread,train,airplane,cat,pineapple,butterfly,cow,4,0,4.6495,,train,inanim_artificial,0,line_drawing,2,12,48,2,1,,,,,,
607668ac450fc6e3025a131d,2025-08-20_15h37.55.489,GLINT,2024.2.4,MacIntel,30.12048193,,,,,,,,,,,,,,,,,,,,bread,inanim_natural,5,butterfly,cat,cow,airplane,bread,train,mushroom,lawnmower,apple,5,1,3.7904,,bread,inanim_natural,1,line_drawing,2,13,49,6,1,,,,,,
607668ac450fc6e3025a131d,2025-08-20_15h37.55.489,GLINT,2024.2.4,MacIntel,30.12048193,,,,,,,,,,,,,,,,,,,,dog,anim_natural,6,mushroom,train,cat,car,bread,dog,cow,binoculars,avocado,6,1,4.776,,dog,anim_natural,1,line_drawing,2,14,50,4,1,,,,,,
607668ac450fc6e3025a131d,2025-08-20_15h37.55.489,GLINT,2024.2.4,MacIntel,30.12048193,,,,,,,,,,,,,,,,,,,,binoculars,inanim_artificial,4,car,apple,mushroom,binoculars,house,dog,butterfly,snail,avocado,4,1,2.3527,,binoculars,inanim_artificial,1,line_drawing,2,15,51,13,1,,,,,,
607668ac450fc6e3025a131d,2025-08-20_15h37.55.489,GLINT,2024.2.4,MacIntel,30.12048193,,,,,,,,,,,,,,,,,,,,cow,anim_natural,1,cow,mushroom,bread,lawnmower,house,butterfly,car,apple,snail,1,1,1.3465,,cow,anim_natural,1,line_drawing,2,16,52,3,1,,,,,,
607668ac450fc6e3025a131d,2025-08-20_15h37.55.489,GLINT,2024.2.4,MacIntel,30.12048193,,,,,,,,,,,,,,,,,,,,lawnmower,inanim_artificial,6,binoculars,butterfly,pineapple,avocado,apple,lawnmower,bear,car,snail,6,1,1.4158,,lawnmower,inanim_artificial,1,line_drawing,2,17,53,16,1,,,,,,
607668ac450fc6e3025a131d,2025-08-20_15h37.55.489,GLINT,2024.2.4,MacIntel,30.12048193,,,,,,,,,,,,,,,,,,,,airplane,inanim_artificial,7,bear,car,lawnmower,cow,cat,pineapple,airplane,mushroom,corn,7,1,2.0214,,airplane,inanim_artificial,1,line_drawing,3,0,54,12,1,,,,,,
607668ac450fc6e3025a131d,2025-08-20_15h37.55.489,GLINT,2024.2.4,MacIntel,30.12048193,,,,,,,,,,,,,,,,,,,,mushroom,inanim_natural,6,lawnmower,train,house,avocado,pineapple,mushroom,cat,cow,dog,6,1,2.6107,,mushroom,inanim_natural,1,line_drawing,3,1,55,7,1,,,,,,
607668ac450fc6e3025a131d,2025-08-20_15h37.55.489,GLINT,2024.2.4,MacIntel,30.12048193,,,,,,,,,,,,,,,,,,,,bread,inanim_natural,2,corn,bread,lawnmower,binoculars,airplane,apple,snail,butterfly,bear,2,1,1.3082,,bread,inanim_natural,1,line_drawing,3,2,56,6,1,,,,,,
607668ac450fc6e3025a131d,2025-08-20_15h37.55.489,GLINT,2024.2.4,MacIntel,30.12048193,,,,,,,,,,,,,,,,,,,,apple,inanim_natural,8,car,bear,dog,avocado,mushroom,airplane,cow,apple,house,8,1,1.8743,,apple,inanim_natural,1,line_drawing,3,3,57,9,1,,,,,,
607668ac450fc6e3025a131d,2025-08-20_15h37.55.489,GLINT,2024.2.4,MacIntel,30.12048193,,,,,,,,,,,,,,,,,,,,cow,anim_natural,1,cow,pineapple,apple,house,cat,binoculars,butterfly,bread,train,1,1,1.2846,,cow,anim_natural,1,line_drawing,3,4,58,3,1,,,,,,
607668ac450fc6e3025a131d,2025-08-20_15h37.55.489,GLINT,2024.2.4,MacIntel,30.12048193,,,,,,,,,,,,,,,,,,,,pineapple,inanim_natural,4,bear,binoculars,airplane,pineapple,cow,mushroom,house,dog,corn,4,1,1.3668,,pineapple,inanim_natural,1,line_drawing,3,5,59,8,1,,,,,,
607668ac450fc6e3025a131d,2025-08-20_15h37.55.489,GLINT,2024.2.4,MacIntel,30.12048193,,,,,,,,,,,,,,,,,,,,house,inanim_artificial,1,house,bread,corn,train,cow,apple,cat,butterfly,binoculars,1,1,2.5023,,house,inanim_artificial,1,line_drawing,3,6,60,15,1,,,,,,
607668ac450fc6e3025a131d,2025-08-20_15h37.55.489,GLINT,2024.2.4,MacIntel,30.12048193,,,,,,,,,,,,,,,,,,,,dog,anim_natural,3,binoculars,airplane,dog,car,snail,apple,avocado,cow,pineapple,8,0,4.9225,,cow,anim_natural,1,line_drawing,3,7,61,4,1,,,,,,
607668ac450fc6e3025a131d,2025-08-20_15h37.55.489,GLINT,2024.2.4,MacIntel,30.12048193,,,,,,,,,,,,,,,,,,,,train,inanim_artificial,1,train,corn,snail,cow,car,butterfly,binoculars,avocado,pineapple,1,1,3.6973,,train,inanim_artificial,1,line_drawing,3,8,62,17,1,,,,,,
607668ac450fc6e3025a131d,2025-08-20_15h37.55.489,GLINT,2024.2.4,MacIntel,30.12048193,,,,,,,,,,,,,,,,,,,,butterfly,anim_natural,1,butterfly,car,mushroom,binoculars,airplane,avocado,bear,apple,cow,1,1,2.2579,,butterfly,anim_natural,1,line_drawing,3,9,63,1,1,,,,,,
607668ac450fc6e3025a131d,2025-08-20_15h37.55.489,GLINT,2024.2.4,MacIntel,30.12048193,,,,,,,,,,,,,,,,,,,,lawnmower,inanim_artificial,2,train,lawnmower,airplane,cat,pineapple,snail,bear,bread,apple,2,1,0.979,,lawnmower,inanim_artificial,1,line_drawing,3,10,64,16,1,,,,,,
607668ac450fc6e3025a131d,2025-08-20_15h37.55.489,GLINT,2024.2.4,MacIntel,30.12048193,,,,,,,,,,,,,,,,,,,,bear,anim_natural,3,airplane,avocado,bear,snail,corn,bread,cat,car,train,3,1,2.0626,,bear,anim_natural,1,line_drawing,3,11,65,0,1,,,,,,
607668ac450fc6e3025a131d,2025-08-20_15h37.55.489,GLINT,2024.2.4,MacIntel,30.12048193,,,,,,,,,,,,,,,,,,,,cat,anim_natural,6,airplane,apple,cow,house,pineapple,cat,lawnmower,corn,snail,,0,,,no response,no response,0,line_drawing,3,12,66,2,1,,,,,,
607668ac450fc6e3025a131d,2025-08-20_15h37.55.489,GLINT,2024.2.4,MacIntel,30.12048193,,,,,,,,,,,,,,,,,,,,binoculars,inanim_artificial,5,cat,pineapple,house,apple,binoculars,snail,cow,avocado,airplane,5,1,1.6614,,binoculars,inanim_artificial,1,line_drawing,3,13,67,13,1,,,,,,
607668ac450fc6e3025a131d,2025-08-20_15h37.55.489,GLINT,2024.2.4,MacIntel,30.12048193,,,,,,,,,,,,,,,,,,,,snail,anim_natural,1,snail,butterfly,apple,lawnmower,avocado,bear,bread,airplane,car,1,1,1.0469,,snail,anim_natural,1,line_drawing,3,14,68,5,1,,,,,,
607668ac450fc6e3025a131d,2025-08-20_15h37.55.489,GLINT,2024.2.4,MacIntel,30.12048193,,,,,,,,,,,,,,,,,,,,corn,inanim_natural,2,airplane,corn,bread,binoculars,car,bear,cat,avocado,dog,2,1,0.9366,,corn,inanim_natural,1,line_drawing,3,15,69,10,1,,,,,,
607668ac450fc6e3025a131d,2025-08-20_15h37.55.489,GLINT,2024.2.4,MacIntel,30.12048193,,,,,,,,,,,,,,,,,,,,car,inanim_artificial,7,cow,train,mushroom,dog,butterfly,binoculars,car,corn,bread,7,1,2.2216,,car,inanim_artificial,1,line_drawing,3,16,70,14,1,,,,,,
607668ac450fc6e3025a131d,2025-08-20_15h37.55.489,GLINT,2024.2.4,MacIntel,30.12048193,,,,,,,,,,,,,,,,,,,,avocado,inanim_natural,9,binoculars,airplane,corn,pineapple,cat,house,dog,snail,avocado,9,1,2.6811,,avocado,inanim_natural,1,line_drawing,3,17,71,11,1,,,,,,
607668ac450fc6e3025a131d,2025-08-20_15h37.55.489,GLINT,2024.2.4,MacIntel,30.12048193,,,,,,,,,,,,,,,,,,,,,,,,,,,,,,,,,,,,,,,,,,,,,0,2,2,1,1,line_drawing
