participant,date,expName,psychopyVersion,OS,frameRate,CorrectResponse,prac_prompt_1,prac_prompt_2,prac_prompt_3,prac_prompt_4,prac_prompt_5,prac_prompt_6,prac_prompt_7,prac_prompt_8,prac_prompt_9,prac_key_resp.keys,prac_key_resp.corr,prac_key_resp.rt,prac_key_resp.duration,prac_loop.thisRepN,prac_loop.thisTrialN,prac_loop.thisN,prac_loop.thisIndex,prac_loop.ran,object_class,object_category,corr_ans,prompt_1,prompt_2,prompt_3,prompt_4,prompt_5,prompt_6,prompt_7,prompt_8,prompt_9,key_resp.keys,key_resp.corr,key_resp.rt,key_resp.duration,response_label,response_animacy,corr_animacy,img_condition,test_loop.thisRepN,test_loop.thisTrialN,test_loop.thisN,test_loop.thisIndex,test_loop.ran,randomize_blocks.thisRepN,randomize_blocks.thisTrialN,randomize_blocks.thisN,randomize_blocks.thisIndex,randomize_blocks.ran,block_condition
62f6e81d42e7c4dea045f2fc,2025-08-21_11h37.21.055,GLINT,2024.2.4,Win32,7.10732054,,,,,,,,,,,,,,,,,,,,,,,,,,,,,,,,,,,,,,,,,,,,,,,,,,
62f6e81d42e7c4dea045f2fc,2025-08-21_11h37.21.055,GLINT,2024.2.4,Win32,7.10732054,,,,,,,,,,,,,,,,,,,,,,,,,,,,,,,,,,,,,,,,,,,,,,,,,,
62f6e81d42e7c4dea045f2fc,2025-08-21_11h37.21.055,GLINT,2024.2.4,Win32,7.10732054,,,,,,,,,,,,,,,,,,,,,,,,,,,,,,,,,,,,,,,,,,,,,,,,,,
62f6e81d42e7c4dea045f2fc,2025-08-21_11h37.21.055,GLINT,2024.2.4,Win32,7.10732054,6,bicycle,tree,truck,chair,flower,duck,hand,leaf,dog,6,1,3.340799999,0.000400001,0,0,0,1,1,duck,anim_natural,,,,,,,,,,,,,,,,,,,,,,,,,,,,,
62f6e81d42e7c4dea045f2fc,2025-08-21_11h37.21.055,GLINT,2024.2.4,Win32,7.10732054,6,flower,truck,tree,bicycle,duck,dog,hand,leaf,chair,6,1,3.031,0.000400001,0,1,1,2,1,dog,anim_natural,,,,,,,,,,,,,,,,,,,,,,,,,,,,,
62f6e81d42e7c4dea045f2fc,2025-08-21_11h37.21.055,GLINT,2024.2.4,Win32,7.10732054,3,flower,duck,hand,dog,tree,truck,chair,bicycle,leaf,3,1,3.9528,0.0005,0,2,2,0,1,hand,anim_natural,,,,,,,,,,,,,,,,,,,,,,,,,,,,,
62f6e81d42e7c4dea045f2fc,2025-08-21_11h37.21.055,GLINT,2024.2.4,Win32,7.10732054,1,tree,duck,chair,bicycle,truck,leaf,dog,flower,hand,1,1,2.0167,0.0004,0,3,3,4,1,tree,inanim_natural,,,,,,,,,,,,,,,,,,,,,,,,,,,,,
62f6e81d42e7c4dea045f2fc,2025-08-21_11h37.21.055,GLINT,2024.2.4,Win32,7.10732054,3,chair,truck,flower,leaf,duck,tree,hand,dog,bicycle,3,1,2.365099999,,0,4,4,3,1,flower,inanim_natural,,,,,,,,,,,,,,,,,,,,,,,,,,,,,
62f6e81d42e7c4dea045f2fc,2025-08-21_11h37.21.055,GLINT,2024.2.4,Win32,7.10732054,,,,,,,,,,,,,,,,,,,,cat,anim_natural,3,corn,train,cat,binoculars,apple,pineapple,butterfly,lawnmower,snail,3,1,1.8219,0.0002,cat,anim_natural,1,line_drawing,0,0,0,2,1,,,,,,
62f6e81d42e7c4dea045f2fc,2025-08-21_11h37.21.055,GLINT,2024.2.4,Win32,7.10732054,,,,,,,,,,,,,,,,,,,,mushroom,inanim_natural,1,mushroom,car,bread,lawnmower,snail,cow,apple,train,butterfly,1,1,2.014400001,,mushroom,inanim_natural,1,line_drawing,0,1,1,7,1,,,,,,
62f6e81d42e7c4dea045f2fc,2025-08-21_11h37.21.055,GLINT,2024.2.4,Win32,7.10732054,,,,,,,,,,,,,,,,,,,,car,inanim_artificial,9,snail,house,avocado,train,bread,bear,cow,apple,car,9,1,1.6195,,car,inanim_artificial,1,line_drawing,0,2,2,14,1,,,,,,
62f6e81d42e7c4dea045f2fc,2025-08-21_11h37.21.055,GLINT,2024.2.4,Win32,7.10732054,,,,,,,,,,,,,,,,,,,,lawnmower,inanim_artificial,7,mushroom,airplane,dog,butterfly,house,bear,lawnmower,corn,apple,7,1,2.1763,0.0004,lawnmower,inanim_artificial,1,line_drawing,0,3,3,16,1,,,,,,
62f6e81d42e7c4dea045f2fc,2025-08-21_11h37.21.055,GLINT,2024.2.4,Win32,7.10732054,,,,,,,,,,,,,,,,,,,,binoculars,inanim_artificial,2,dog,binoculars,lawnmower,avocado,snail,train,corn,apple,cow,8,0,1.0812,,apple,inanim_natural,0,line_drawing,0,4,4,13,1,,,,,,
62f6e81d42e7c4dea045f2fc,2025-08-21_11h37.21.055,GLINT,2024.2.4,Win32,7.10732054,,,,,,,,,,,,,,,,,,,,butterfly,anim_natural,4,lawnmower,airplane,pineapple,butterfly,dog,train,corn,cow,avocado,5,0,3.1631,0.0004,dog,anim_natural,1,line_drawing,0,5,5,1,1,,,,,,
62f6e81d42e7c4dea045f2fc,2025-08-21_11h37.21.055,GLINT,2024.2.4,Win32,7.10732054,,,,,,,,,,,,,,,,,,,,house,inanim_artificial,9,apple,pineapple,train,avocado,bear,butterfly,airplane,cow,house,9,1,2.2029,,house,inanim_artificial,1,line_drawing,0,6,6,15,1,,,,,,
62f6e81d42e7c4dea045f2fc,2025-08-21_11h37.21.055,GLINT,2024.2.4,Win32,7.10732054,,,,,,,,,,,,,,,,,,,,bread,inanim_natural,8,binoculars,snail,pineapple,car,house,bear,corn,bread,butterfly,4,0,4.007200001,0.000299999,car,inanim_artificial,0,line_drawing,0,7,7,6,1,,,,,,
62f6e81d42e7c4dea045f2fc,2025-08-21_11h37.21.055,GLINT,2024.2.4,Win32,7.10732054,,,,,,,,,,,,,,,,,,,,apple,inanim_natural,4,airplane,dog,cat,apple,train,bear,avocado,house,bread,2,0,4.605900001,,dog,anim_natural,0,line_drawing,0,8,8,9,1,,,,,,
62f6e81d42e7c4dea045f2fc,2025-08-21_11h37.21.055,GLINT,2024.2.4,Win32,7.10732054,,,,,,,,,,,,,,,,,,,,dog,anim_natural,1,dog,lawnmower,binoculars,train,bread,snail,avocado,corn,butterfly,5,0,3.271,0.0003,bread,inanim_natural,0,line_drawing,0,9,9,4,1,,,,,,
62f6e81d42e7c4dea045f2fc,2025-08-21_11h37.21.055,GLINT,2024.2.4,Win32,7.10732054,,,,,,,,,,,,,,,,,,,,avocado,inanim_natural,2,apple,avocado,cat,house,snail,butterfly,binoculars,mushroom,car,2,1,1.2787,0.000400001,avocado,inanim_natural,1,line_drawing,0,10,10,11,1,,,,,,
62f6e81d42e7c4dea045f2fc,2025-08-21_11h37.21.055,GLINT,2024.2.4,Win32,7.10732054,,,,,,,,,,,,,,,,,,,,snail,anim_natural,7,avocado,train,house,airplane,dog,cat,snail,pineapple,corn,7,1,2.375700001,,snail,anim_natural,1,line_drawing,0,11,11,5,1,,,,,,
62f6e81d42e7c4dea045f2fc,2025-08-21_11h37.21.055,GLINT,2024.2.4,Win32,7.10732054,,,,,,,,,,,,,,,,,,,,airplane,inanim_artificial,2,mushroom,airplane,avocado,corn,snail,cow,train,lawnmower,butterfly,2,1,1.1559,0.0002,airplane,inanim_artificial,1,line_drawing,0,12,12,12,1,,,,,,
62f6e81d42e7c4dea045f2fc,2025-08-21_11h37.21.055,GLINT,2024.2.4,Win32,7.10732054,,,,,,,,,,,,,,,,,,,,pineapple,inanim_natural,1,pineapple,house,butterfly,airplane,avocado,dog,mushroom,cat,train,1,1,1.4864,0.0005,pineapple,inanim_natural,1,line_drawing,0,13,13,8,1,,,,,,
62f6e81d42e7c4dea045f2fc,2025-08-21_11h37.21.055,GLINT,2024.2.4,Win32,7.10732054,,,,,,,,,,,,,,,,,,,,cow,anim_natural,3,bear,house,cow,train,lawnmower,bread,pineapple,cat,avocado,3,1,1.4712,0.0003,cow,anim_natural,1,line_drawing,0,14,14,3,1,,,,,,
62f6e81d42e7c4dea045f2fc,2025-08-21_11h37.21.055,GLINT,2024.2.4,Win32,7.10732054,,,,,,,,,,,,,,,,,,,,corn,inanim_natural,4,cat,car,mushroom,corn,snail,apple,lawnmower,binoculars,dog,4,1,1.862,0.0002,corn,inanim_natural,1,line_drawing,0,15,15,10,1,,,,,,
62f6e81d42e7c4dea045f2fc,2025-08-21_11h37.21.055,GLINT,2024.2.4,Win32,7.10732054,,,,,,,,,,,,,,,,,,,,train,inanim_artificial,4,dog,apple,snail,train,house,cat,bread,lawnmower,avocado,5,0,1.0959,0.0002,house,inanim_artificial,1,line_drawing,0,16,16,17,1,,,,,,
62f6e81d42e7c4dea045f2fc,2025-08-21_11h37.21.055,GLINT,2024.2.4,Win32,7.10732054,,,,,,,,,,,,,,,,,,,,bear,anim_natural,7,corn,dog,airplane,mushroom,house,avocado,bear,car,cat,7,1,3.0843,,bear,anim_natural,1,line_drawing,0,17,17,0,1,,,,,,
62f6e81d42e7c4dea045f2fc,2025-08-21_11h37.21.055,GLINT,2024.2.4,Win32,7.10732054,,,,,,,,,,,,,,,,,,,,train,inanim_artificial,2,binoculars,train,snail,butterfly,mushroom,avocado,house,bread,dog,7,0,2.9307,0.0005,house,inanim_artificial,1,line_drawing,1,0,18,17,1,,,,,,
62f6e81d42e7c4dea045f2fc,2025-08-21_11h37.21.055,GLINT,2024.2.4,Win32,7.10732054,,,,,,,,,,,,,,,,,,,,mushroom,inanim_natural,8,avocado,apple,snail,cat,house,cow,airplane,mushroom,train,8,1,1.298,0.0003,mushroom,inanim_natural,1,line_drawing,1,1,19,7,1,,,,,,
62f6e81d42e7c4dea045f2fc,2025-08-21_11h37.21.055,GLINT,2024.2.4,Win32,7.10732054,,,,,,,,,,,,,,,,,,,,corn,inanim_natural,3,lawnmower,bread,corn,apple,binoculars,butterfly,train,snail,dog,3,1,1.878299999,,corn,inanim_natural,1,line_drawing,1,2,20,10,1,,,,,,
62f6e81d42e7c4dea045f2fc,2025-08-21_11h37.21.055,GLINT,2024.2.4,Win32,7.10732054,,,,,,,,,,,,,,,,,,,,avocado,inanim_natural,3,snail,pineapple,avocado,airplane,cat,train,cow,binoculars,apple,3,1,2.9825,0.0003,avocado,inanim_natural,1,line_drawing,1,3,21,11,1,,,,,,
62f6e81d42e7c4dea045f2fc,2025-08-21_11h37.21.055,GLINT,2024.2.4,Win32,7.10732054,,,,,,,,,,,,,,,,,,,,snail,anim_natural,1,snail,mushroom,lawnmower,corn,bear,train,house,apple,cat,1,1,2.4923,0.000299999,snail,anim_natural,1,line_drawing,1,4,22,5,1,,,,,,
62f6e81d42e7c4dea045f2fc,2025-08-21_11h37.21.055,GLINT,2024.2.4,Win32,7.10732054,,,,,,,,,,,,,,,,,,,,apple,inanim_natural,5,corn,airplane,bread,snail,apple,lawnmower,butterfly,car,bear,3,0,4.4214,,bread,inanim_natural,1,line_drawing,1,5,23,9,1,,,,,,
62f6e81d42e7c4dea045f2fc,2025-08-21_11h37.21.055,GLINT,2024.2.4,Win32,7.10732054,,,,,,,,,,,,,,,,,,,,car,inanim_artificial,3,house,binoculars,car,avocado,dog,bear,pineapple,butterfly,mushroom,3,1,1.2924,,car,inanim_artificial,1,line_drawing,1,6,24,14,1,,,,,,
62f6e81d42e7c4dea045f2fc,2025-08-21_11h37.21.055,GLINT,2024.2.4,Win32,7.10732054,,,,,,,,,,,,,,,,,,,,house,inanim_artificial,6,butterfly,avocado,train,lawnmower,cow,house,snail,mushroom,corn,6,1,1.317599999,0.0003,house,inanim_artificial,1,line_drawing,1,7,25,15,1,,,,,,
62f6e81d42e7c4dea045f2fc,2025-08-21_11h37.21.055,GLINT,2024.2.4,Win32,7.10732054,,,,,,,,,,,,,,,,,,,,binoculars,inanim_artificial,9,snail,bear,cow,apple,pineapple,car,airplane,corn,binoculars,4,0,1.284599999,,apple,inanim_natural,0,line_drawing,1,8,26,13,1,,,,,,
62f6e81d42e7c4dea045f2fc,2025-08-21_11h37.21.055,GLINT,2024.2.4,Win32,7.10732054,,,,,,,,,,,,,,,,,,,,lawnmower,inanim_artificial,2,train,lawnmower,avocado,snail,house,mushroom,apple,cow,cat,2,1,1.644599999,,lawnmower,inanim_artificial,1,line_drawing,1,9,27,16,1,,,,,,
62f6e81d42e7c4dea045f2fc,2025-08-21_11h37.21.055,GLINT,2024.2.4,Win32,7.10732054,,,,,,,,,,,,,,,,,,,,cat,anim_natural,6,bear,airplane,car,corn,mushroom,cat,house,bread,snail,6,1,1.482099999,0.000200001,cat,anim_natural,1,line_drawing,1,10,28,2,1,,,,,,
62f6e81d42e7c4dea045f2fc,2025-08-21_11h37.21.055,GLINT,2024.2.4,Win32,7.10732054,,,,,,,,,,,,,,,,,,,,bread,inanim_natural,9,house,cat,car,snail,dog,corn,airplane,avocado,bread,9,1,2.659700001,,bread,inanim_natural,1,line_drawing,1,11,29,6,1,,,,,,
62f6e81d42e7c4dea045f2fc,2025-08-21_11h37.21.055,GLINT,2024.2.4,Win32,7.10732054,,,,,,,,,,,,,,,,,,,,bear,anim_natural,8,cow,lawnmower,bread,mushroom,butterfly,car,apple,bear,binoculars,8,1,2.8294,0.0002,bear,anim_natural,1,line_drawing,1,12,30,0,1,,,,,,
62f6e81d42e7c4dea045f2fc,2025-08-21_11h37.21.055,GLINT,2024.2.4,Win32,7.10732054,,,,,,,,,,,,,,,,,,,,dog,anim_natural,9,snail,corn,train,cat,airplane,binoculars,avocado,apple,dog,9,1,2.2579,,dog,anim_natural,1,line_drawing,1,13,31,4,1,,,,,,
62f6e81d42e7c4dea045f2fc,2025-08-21_11h37.21.055,GLINT,2024.2.4,Win32,7.10732054,,,,,,,,,,,,,,,,,,,,pineapple,inanim_natural,5,binoculars,cow,apple,train,pineapple,cat,avocado,lawnmower,bear,5,1,1.1401,0.0003,pineapple,inanim_natural,1,line_drawing,1,14,32,8,1,,,,,,
62f6e81d42e7c4dea045f2fc,2025-08-21_11h37.21.055,GLINT,2024.2.4,Win32,7.10732054,,,,,,,,,,,,,,,,,,,,butterfly,anim_natural,6,pineapple,train,bear,snail,car,butterfly,binoculars,avocado,corn,6,1,1.112,0.0004,butterfly,anim_natural,1,line_drawing,1,15,33,1,1,,,,,,
62f6e81d42e7c4dea045f2fc,2025-08-21_11h37.21.055,GLINT,2024.2.4,Win32,7.10732054,,,,,,,,,,,,,,,,,,,,airplane,inanim_artificial,8,car,bear,avocado,train,cat,bread,snail,airplane,apple,8,1,1.5108,0.0004,airplane,inanim_artificial,1,line_drawing,1,16,34,12,1,,,,,,
62f6e81d42e7c4dea045f2fc,2025-08-21_11h37.21.055,GLINT,2024.2.4,Win32,7.10732054,,,,,,,,,,,,,,,,,,,,cow,anim_natural,1,cow,lawnmower,house,cat,corn,binoculars,bear,mushroom,avocado,1,1,2.2271,,cow,anim_natural,1,line_drawing,1,17,35,3,1,,,,,,
62f6e81d42e7c4dea045f2fc,2025-08-21_11h37.21.055,GLINT,2024.2.4,Win32,7.10732054,,,,,,,,,,,,,,,,,,,,car,inanim_artificial,8,pineapple,apple,snail,dog,lawnmower,butterfly,airplane,car,corn,8,1,1.1192,0.0002,car,inanim_artificial,1,line_drawing,2,0,36,14,1,,,,,,
62f6e81d42e7c4dea045f2fc,2025-08-21_11h37.21.055,GLINT,2024.2.4,Win32,7.10732054,,,,,,,,,,,,,,,,,,,,lawnmower,inanim_artificial,5,snail,apple,avocado,train,lawnmower,bear,dog,corn,car,5,1,1.1054,,lawnmower,inanim_artificial,1,line_drawing,2,1,37,16,1,,,,,,
62f6e81d42e7c4dea045f2fc,2025-08-21_11h37.21.055,GLINT,2024.2.4,Win32,7.10732054,,,,,,,,,,,,,,,,,,,,apple,inanim_natural,9,cat,airplane,cow,house,bread,binoculars,dog,corn,apple,,0,,,no response,no response,0,line_drawing,2,2,38,9,1,,,,,,
62f6e81d42e7c4dea045f2fc,2025-08-21_11h37.21.055,GLINT,2024.2.4,Win32,7.10732054,,,,,,,,,,,,,,,,,,,,corn,inanim_natural,1,corn,apple,cat,train,house,avocado,cow,bear,car,1,1,2.294599999,0.0002,corn,inanim_natural,1,line_drawing,2,3,39,10,1,,,,,,
62f6e81d42e7c4dea045f2fc,2025-08-21_11h37.21.055,GLINT,2024.2.4,Win32,7.10732054,,,,,,,,,,,,,,,,,,,,house,inanim_artificial,2,dog,house,avocado,bread,lawnmower,car,bear,apple,snail,2,1,1.4743,0.0002,house,inanim_artificial,1,line_drawing,2,4,40,15,1,,,,,,
62f6e81d42e7c4dea045f2fc,2025-08-21_11h37.21.055,GLINT,2024.2.4,Win32,7.10732054,,,,,,,,,,,,,,,,,,,,cat,anim_natural,6,pineapple,binoculars,train,corn,lawnmower,cat,bear,bread,snail,6,1,1.3275,0.0003,cat,anim_natural,1,line_drawing,2,5,41,2,1,,,,,,
62f6e81d42e7c4dea045f2fc,2025-08-21_11h37.21.055,GLINT,2024.2.4,Win32,7.10732054,,,,,,,,,,,,,,,,,,,,snail,anim_natural,6,lawnmower,bread,dog,cow,avocado,snail,corn,train,car,6,1,3.2293,0.0003,snail,anim_natural,1,line_drawing,2,6,42,5,1,,,,,,
62f6e81d42e7c4dea045f2fc,2025-08-21_11h37.21.055,GLINT,2024.2.4,Win32,7.10732054,,,,,,,,,,,,,,,,,,,,binoculars,inanim_artificial,9,avocado,cat,snail,house,corn,dog,bread,train,binoculars,9,1,1.867599999,0.0002,binoculars,inanim_artificial,1,line_drawing,2,7,43,13,1,,,,,,
62f6e81d42e7c4dea045f2fc,2025-08-21_11h37.21.055,GLINT,2024.2.4,Win32,7.10732054,,,,,,,,,,,,,,,,,,,,cow,anim_natural,2,dog,cow,airplane,car,mushroom,binoculars,avocado,cat,corn,3,0,2.1875,,airplane,inanim_artificial,0,line_drawing,2,8,44,3,1,,,,,,
62f6e81d42e7c4dea045f2fc,2025-08-21_11h37.21.055,GLINT,2024.2.4,Win32,7.10732054,,,,,,,,,,,,,,,,,,,,airplane,inanim_artificial,4,pineapple,mushroom,dog,airplane,bread,cat,lawnmower,car,bear,3,0,0.550400001,0.0004,dog,anim_natural,0,line_drawing,2,9,45,12,1,,,,,,
62f6e81d42e7c4dea045f2fc,2025-08-21_11h37.21.055,GLINT,2024.2.4,Win32,7.10732054,,,,,,,,,,,,,,,,,,,,train,inanim_artificial,1,train,avocado,butterfly,mushroom,pineapple,cat,binoculars,snail,car,1,1,2.7352,,train,inanim_artificial,1,line_drawing,2,10,46,17,1,,,,,,
62f6e81d42e7c4dea045f2fc,2025-08-21_11h37.21.055,GLINT,2024.2.4,Win32,7.10732054,,,,,,,,,,,,,,,,,,,,bread,inanim_natural,7,car,butterfly,lawnmower,dog,mushroom,apple,bread,snail,airplane,,0,,,no response,no response,0,line_drawing,2,11,47,6,1,,,,,,
62f6e81d42e7c4dea045f2fc,2025-08-21_11h37.21.055,GLINT,2024.2.4,Win32,7.10732054,,,,,,,,,,,,,,,,,,,,avocado,inanim_natural,1,avocado,corn,lawnmower,bear,cow,cat,car,pineapple,house,2,0,3.6048,0.000400001,corn,inanim_natural,1,line_drawing,2,12,48,11,1,,,,,,
62f6e81d42e7c4dea045f2fc,2025-08-21_11h37.21.055,GLINT,2024.2.4,Win32,7.10732054,,,,,,,,,,,,,,,,,,,,pineapple,inanim_natural,4,bear,car,airplane,pineapple,butterfly,train,apple,mushroom,cat,4,1,1.299700001,,pineapple,inanim_natural,1,line_drawing,2,13,49,8,1,,,,,,
62f6e81d42e7c4dea045f2fc,2025-08-21_11h37.21.055,GLINT,2024.2.4,Win32,7.10732054,,,,,,,,,,,,,,,,,,,,bear,anim_natural,4,train,cat,butterfly,bear,mushroom,apple,lawnmower,pineapple,airplane,4,1,3.4993,0.0002,bear,anim_natural,1,line_drawing,2,14,50,0,1,,,,,,
62f6e81d42e7c4dea045f2fc,2025-08-21_11h37.21.055,GLINT,2024.2.4,Win32,7.10732054,,,,,,,,,,,,,,,,,,,,dog,anim_natural,2,avocado,dog,binoculars,apple,house,butterfly,bear,pineapple,train,2,1,2.248299999,0.000200001,dog,anim_natural,1,line_drawing,2,15,51,4,1,,,,,,
62f6e81d42e7c4dea045f2fc,2025-08-21_11h37.21.055,GLINT,2024.2.4,Win32,7.10732054,,,,,,,,,,,,,,,,,,,,butterfly,anim_natural,9,dog,apple,house,airplane,bread,bear,corn,lawnmower,butterfly,9,1,1.6601,0.0003,butterfly,anim_natural,1,line_drawing,2,16,52,1,1,,,,,,
62f6e81d42e7c4dea045f2fc,2025-08-21_11h37.21.055,GLINT,2024.2.4,Win32,7.10732054,,,,,,,,,,,,,,,,,,,,mushroom,inanim_natural,9,binoculars,butterfly,pineapple,lawnmower,airplane,snail,avocado,bear,mushroom,3,0,3.148,0.0003,pineapple,inanim_natural,1,line_drawing,2,17,53,7,1,,,,,,
62f6e81d42e7c4dea045f2fc,2025-08-21_11h37.21.055,GLINT,2024.2.4,Win32,7.10732054,,,,,,,,,,,,,,,,,,,,airplane,inanim_artificial,6,mushroom,bear,avocado,lawnmower,car,airplane,cow,bread,butterfly,6,1,1.7165,0.0003,airplane,inanim_artificial,1,line_drawing,3,0,54,12,1,,,,,,
62f6e81d42e7c4dea045f2fc,2025-08-21_11h37.21.055,GLINT,2024.2.4,Win32,7.10732054,,,,,,,,,,,,,,,,,,,,car,inanim_artificial,5,house,butterfly,snail,binoculars,car,dog,pineapple,bread,corn,5,1,0.9104,0.0003,car,inanim_artificial,1,line_drawing,3,1,55,14,1,,,,,,
62f6e81d42e7c4dea045f2fc,2025-08-21_11h37.21.055,GLINT,2024.2.4,Win32,7.10732054,,,,,,,,,,,,,,,,,,,,bear,anim_natural,6,binoculars,house,lawnmower,apple,corn,bear,avocado,cow,butterfly,6,1,2.4015,0.0004,bear,anim_natural,1,line_drawing,3,2,56,0,1,,,,,,
62f6e81d42e7c4dea045f2fc,2025-08-21_11h37.21.055,GLINT,2024.2.4,Win32,7.10732054,,,,,,,,,,,,,,,,,,,,house,inanim_artificial,7,cow,corn,dog,car,airplane,bread,house,pineapple,snail,7,1,2.0234,,house,inanim_artificial,1,line_drawing,3,3,57,15,1,,,,,,
62f6e81d42e7c4dea045f2fc,2025-08-21_11h37.21.055,GLINT,2024.2.4,Win32,7.10732054,,,,,,,,,,,,,,,,,,,,binoculars,inanim_artificial,5,train,pineapple,bread,cow,binoculars,cat,bear,corn,house,5,1,1.147,0.0002,binoculars,inanim_artificial,1,line_drawing,3,4,58,13,1,,,,,,
62f6e81d42e7c4dea045f2fc,2025-08-21_11h37.21.055,GLINT,2024.2.4,Win32,7.10732054,,,,,,,,,,,,,,,,,,,,lawnmower,inanim_artificial,9,corn,airplane,snail,bread,cow,train,dog,apple,lawnmower,9,1,2.2811,,lawnmower,inanim_artificial,1,line_drawing,3,5,59,16,1,,,,,,
62f6e81d42e7c4dea045f2fc,2025-08-21_11h37.21.055,GLINT,2024.2.4,Win32,7.10732054,,,,,,,,,,,,,,,,,,,,mushroom,inanim_natural,5,house,butterfly,airplane,binoculars,mushroom,corn,dog,pineapple,cat,5,1,0.9671,,mushroom,inanim_natural,1,line_drawing,3,6,60,7,1,,,,,,
62f6e81d42e7c4dea045f2fc,2025-08-21_11h37.21.055,GLINT,2024.2.4,Win32,7.10732054,,,,,,,,,,,,,,,,,,,,butterfly,anim_natural,6,bread,avocado,cow,airplane,lawnmower,butterfly,car,bear,pineapple,6,1,1.1737,,butterfly,anim_natural,1,line_drawing,3,7,61,1,1,,,,,,
62f6e81d42e7c4dea045f2fc,2025-08-21_11h37.21.055,GLINT,2024.2.4,Win32,7.10732054,,,,,,,,,,,,,,,,,,,,cat,anim_natural,3,car,bread,cat,pineapple,cow,binoculars,snail,airplane,apple,3,1,2.076099999,0.000400001,cat,anim_natural,1,line_drawing,3,8,62,2,1,,,,,,
62f6e81d42e7c4dea045f2fc,2025-08-21_11h37.21.055,GLINT,2024.2.4,Win32,7.10732054,,,,,,,,,,,,,,,,,,,,corn,inanim_natural,4,car,airplane,bear,corn,snail,avocado,cow,apple,binoculars,4,1,3.2195,0.0002,corn,inanim_natural,1,line_drawing,3,9,63,10,1,,,,,,
62f6e81d42e7c4dea045f2fc,2025-08-21_11h37.21.055,GLINT,2024.2.4,Win32,7.10732054,,,,,,,,,,,,,,,,,,,,snail,anim_natural,1,snail,mushroom,lawnmower,binoculars,dog,cow,apple,airplane,corn,1,1,2.4497,0.0003,snail,anim_natural,1,line_drawing,3,10,64,5,1,,,,,,
62f6e81d42e7c4dea045f2fc,2025-08-21_11h37.21.055,GLINT,2024.2.4,Win32,7.10732054,,,,,,,,,,,,,,,,,,,,pineapple,inanim_natural,7,dog,apple,lawnmower,cat,airplane,cow,pineapple,mushroom,house,7,1,3.6542,0.000400001,pineapple,inanim_natural,1,line_drawing,3,11,65,8,1,,,,,,
62f6e81d42e7c4dea045f2fc,2025-08-21_11h37.21.055,GLINT,2024.2.4,Win32,7.10732054,,,,,,,,,,,,,,,,,,,,avocado,inanim_natural,3,dog,house,avocado,apple,bear,bread,lawnmower,butterfly,train,3,1,1.3252,0.0005,avocado,inanim_natural,1,line_drawing,3,12,66,11,1,,,,,,
62f6e81d42e7c4dea045f2fc,2025-08-21_11h37.21.055,GLINT,2024.2.4,Win32,7.10732054,,,,,,,,,,,,,,,,,,,,apple,inanim_natural,5,house,avocado,snail,cow,apple,pineapple,train,airplane,dog,5,1,2.42,,apple,inanim_natural,1,line_drawing,3,13,67,9,1,,,,,,
62f6e81d42e7c4dea045f2fc,2025-08-21_11h37.21.055,GLINT,2024.2.4,Win32,7.10732054,,,,,,,,,,,,,,,,,,,,cow,anim_natural,7,corn,lawnmower,bread,cat,dog,apple,cow,car,binoculars,2,0,3.528900001,0.0004,lawnmower,inanim_artificial,0,line_drawing,3,14,68,3,1,,,,,,
62f6e81d42e7c4dea045f2fc,2025-08-21_11h37.21.055,GLINT,2024.2.4,Win32,7.10732054,,,,,,,,,,,,,,,,,,,,bread,inanim_natural,7,butterfly,cat,binoculars,car,airplane,corn,bread,dog,mushroom,7,1,2.217700001,,bread,inanim_natural,1,line_drawing,3,15,69,6,1,,,,,,
62f6e81d42e7c4dea045f2fc,2025-08-21_11h37.21.055,GLINT,2024.2.4,Win32,7.10732054,,,,,,,,,,,,,,,,,,,,train,inanim_artificial,8,binoculars,dog,apple,airplane,bread,pineapple,bear,train,cat,,0,,,no response,no response,0,line_drawing,3,16,70,17,1,,,,,,
62f6e81d42e7c4dea045f2fc,2025-08-21_11h37.21.055,GLINT,2024.2.4,Win32,7.10732054,,,,,,,,,,,,,,,,,,,,dog,anim_natural,5,airplane,butterfly,lawnmower,mushroom,dog,pineapple,house,corn,cow,5,1,0.9386,,dog,anim_natural,1,line_drawing,3,17,71,4,1,,,,,,
62f6e81d42e7c4dea045f2fc,2025-08-21_11h37.21.055,GLINT,2024.2.4,Win32,7.10732054,,,,,,,,,,,,,,,,,,,,,,,,,,,,,,,,,,,,,,,,,,,,,0,0,0,1,1,line_drawing
62f6e81d42e7c4dea045f2fc,2025-08-21_11h37.21.055,GLINT,2024.2.4,Win32,7.10732054,,,,,,,,,,,,,,,,,,,,avocado,inanim_natural,2,airplane,avocado,apple,bear,train,lawnmower,snail,cow,corn,2,1,1.8412,0.0004,avocado,inanim_natural,1,scrambled,0,0,0,11,1,,,,,,
62f6e81d42e7c4dea045f2fc,2025-08-21_11h37.21.055,GLINT,2024.2.4,Win32,7.10732054,,,,,,,,,,,,,,,,,,,,cat,anim_natural,2,car,cat,train,cow,house,apple,snail,corn,mushroom,2,1,3.281,,cat,anim_natural,1,scrambled,0,1,1,2,1,,,,,,
62f6e81d42e7c4dea045f2fc,2025-08-21_11h37.21.055,GLINT,2024.2.4,Win32,7.10732054,,,,,,,,,,,,,,,,,,,,bread,inanim_natural,6,house,binoculars,pineapple,car,snail,bread,apple,bear,dog,6,1,2.395,,bread,inanim_natural,1,scrambled,0,2,2,6,1,,,,,,
62f6e81d42e7c4dea045f2fc,2025-08-21_11h37.21.055,GLINT,2024.2.4,Win32,7.10732054,,,,,,,,,,,,,,,,,,,,airplane,inanim_artificial,7,bread,butterfly,car,cow,cat,pineapple,airplane,train,avocado,7,1,2.440700001,0.000299999,airplane,inanim_artificial,1,scrambled,0,3,3,12,1,,,,,,
62f6e81d42e7c4dea045f2fc,2025-08-21_11h37.21.055,GLINT,2024.2.4,Win32,7.10732054,,,,,,,,,,,,,,,,,,,,butterfly,anim_natural,6,cow,corn,train,avocado,airplane,butterfly,lawnmower,pineapple,bear,6,1,1.1012,,butterfly,anim_natural,1,scrambled,0,4,4,1,1,,,,,,
62f6e81d42e7c4dea045f2fc,2025-08-21_11h37.21.055,GLINT,2024.2.4,Win32,7.10732054,,,,,,,,,,,,,,,,,,,,train,inanim_artificial,7,cat,dog,bread,snail,car,pineapple,train,airplane,apple,7,1,1.8343,,train,inanim_artificial,1,scrambled,0,5,5,17,1,,,,,,
62f6e81d42e7c4dea045f2fc,2025-08-21_11h37.21.055,GLINT,2024.2.4,Win32,7.10732054,,,,,,,,,,,,,,,,,,,,pineapple,inanim_natural,3,avocado,dog,pineapple,bear,cow,airplane,binoculars,train,corn,3,1,1.747,0.0003,pineapple,inanim_natural,1,scrambled,0,6,6,8,1,,,,,,
62f6e81d42e7c4dea045f2fc,2025-08-21_11h37.21.055,GLINT,2024.2.4,Win32,7.10732054,,,,,,,,,,,,,,,,,,,,house,inanim_artificial,4,butterfly,corn,car,house,binoculars,dog,pineapple,snail,avocado,4,1,1.2942,,house,inanim_artificial,1,scrambled,0,7,7,15,1,,,,,,
62f6e81d42e7c4dea045f2fc,2025-08-21_11h37.21.055,GLINT,2024.2.4,Win32,7.10732054,,,,,,,,,,,,,,,,,,,,apple,inanim_natural,3,avocado,dog,apple,cat,lawnmower,corn,butterfly,house,train,3,1,1.6582,,apple,inanim_natural,1,scrambled,0,8,8,9,1,,,,,,
62f6e81d42e7c4dea045f2fc,2025-08-21_11h37.21.055,GLINT,2024.2.4,Win32,7.10732054,,,,,,,,,,,,,,,,,,,,binoculars,inanim_artificial,9,bear,cow,lawnmower,cat,avocado,train,mushroom,corn,binoculars,9,1,1.855599999,0.000200001,binoculars,inanim_artificial,1,scrambled,0,9,9,13,1,,,,,,
62f6e81d42e7c4dea045f2fc,2025-08-21_11h37.21.055,GLINT,2024.2.4,Win32,7.10732054,,,,,,,,,,,,,,,,,,,,snail,anim_natural,2,binoculars,snail,butterfly,lawnmower,bread,pineapple,cat,apple,car,2,1,2.2113,,snail,anim_natural,1,scrambled,0,10,10,5,1,,,,,,
62f6e81d42e7c4dea045f2fc,2025-08-21_11h37.21.055,GLINT,2024.2.4,Win32,7.10732054,,,,,,,,,,,,,,,,,,,,bear,anim_natural,6,snail,pineapple,house,butterfly,airplane,bear,mushroom,apple,binoculars,6,1,1.306,0.0002,bear,anim_natural,1,scrambled,0,11,11,0,1,,,,,,
62f6e81d42e7c4dea045f2fc,2025-08-21_11h37.21.055,GLINT,2024.2.4,Win32,7.10732054,,,,,,,,,,,,,,,,,,,,car,inanim_artificial,3,apple,dog,car,house,pineapple,cat,mushroom,binoculars,cow,3,1,1.656700001,0.0004,car,inanim_artificial,1,scrambled,0,12,12,14,1,,,,,,
62f6e81d42e7c4dea045f2fc,2025-08-21_11h37.21.055,GLINT,2024.2.4,Win32,7.10732054,,,,,,,,,,,,,,,,,,,,lawnmower,inanim_artificial,9,apple,bear,binoculars,house,pineapple,cow,corn,cat,lawnmower,9,1,3.5051,,lawnmower,inanim_artificial,1,scrambled,0,13,13,16,1,,,,,,
62f6e81d42e7c4dea045f2fc,2025-08-21_11h37.21.055,GLINT,2024.2.4,Win32,7.10732054,,,,,,,,,,,,,,,,,,,,cow,anim_natural,7,cat,car,lawnmower,apple,pineapple,binoculars,cow,snail,corn,7,1,2.7467,,cow,anim_natural,1,scrambled,0,14,14,3,1,,,,,,
62f6e81d42e7c4dea045f2fc,2025-08-21_11h37.21.055,GLINT,2024.2.4,Win32,7.10732054,,,,,,,,,,,,,,,,,,,,corn,inanim_natural,6,snail,butterfly,car,binoculars,bread,corn,airplane,cat,pineapple,6,1,1.2976,0.0002,corn,inanim_natural,1,scrambled,0,15,15,10,1,,,,,,
62f6e81d42e7c4dea045f2fc,2025-08-21_11h37.21.055,GLINT,2024.2.4,Win32,7.10732054,,,,,,,,,,,,,,,,,,,,dog,anim_natural,3,corn,mushroom,dog,cat,lawnmower,train,snail,bread,house,3,1,2.6092,,dog,anim_natural,1,scrambled,0,16,16,4,1,,,,,,
62f6e81d42e7c4dea045f2fc,2025-08-21_11h37.21.055,GLINT,2024.2.4,Win32,7.10732054,,,,,,,,,,,,,,,,,,,,mushroom,inanim_natural,6,car,airplane,dog,cat,avocado,mushroom,apple,bear,binoculars,6,1,1.1184,0.0003,mushroom,inanim_natural,1,scrambled,0,17,17,7,1,,,,,,
62f6e81d42e7c4dea045f2fc,2025-08-21_11h37.21.055,GLINT,2024.2.4,Win32,7.10732054,,,,,,,,,,,,,,,,,,,,cat,anim_natural,3,apple,dog,cat,cow,lawnmower,bread,train,mushroom,car,3,1,1.4932,,cat,anim_natural,1,scrambled,1,0,18,2,1,,,,,,
62f6e81d42e7c4dea045f2fc,2025-08-21_11h37.21.055,GLINT,2024.2.4,Win32,7.10732054,,,,,,,,,,,,,,,,,,,,bear,anim_natural,4,cow,train,lawnmower,bear,apple,butterfly,bread,binoculars,mushroom,4,1,1.4905,0.0006,bear,anim_natural,1,scrambled,1,1,19,0,1,,,,,,
62f6e81d42e7c4dea045f2fc,2025-08-21_11h37.21.055,GLINT,2024.2.4,Win32,7.10732054,,,,,,,,,,,,,,,,,,,,train,inanim_artificial,2,bread,train,snail,butterfly,lawnmower,binoculars,apple,corn,bear,2,1,1.1089,,train,inanim_artificial,1,scrambled,1,2,20,17,1,,,,,,
62f6e81d42e7c4dea045f2fc,2025-08-21_11h37.21.055,GLINT,2024.2.4,Win32,7.10732054,,,,,,,,,,,,,,,,,,,,cow,anim_natural,5,apple,bear,lawnmower,car,cow,mushroom,airplane,butterfly,avocado,5,1,1.313,,cow,anim_natural,1,scrambled,1,3,21,3,1,,,,,,
62f6e81d42e7c4dea045f2fc,2025-08-21_11h37.21.055,GLINT,2024.2.4,Win32,7.10732054,,,,,,,,,,,,,,,,,,,,binoculars,inanim_artificial,8,mushroom,butterfly,cat,bear,bread,airplane,avocado,binoculars,car,8,1,1.3642,,binoculars,inanim_artificial,1,scrambled,1,4,22,13,1,,,,,,
62f6e81d42e7c4dea045f2fc,2025-08-21_11h37.21.055,GLINT,2024.2.4,Win32,7.10732054,,,,,,,,,,,,,,,,,,,,dog,anim_natural,7,train,airplane,pineapple,bear,avocado,bread,dog,butterfly,lawnmower,7,1,1.917900001,0.000299999,dog,anim_natural,1,scrambled,1,5,23,4,1,,,,,,
62f6e81d42e7c4dea045f2fc,2025-08-21_11h37.21.055,GLINT,2024.2.4,Win32,7.10732054,,,,,,,,,,,,,,,,,,,,mushroom,inanim_natural,2,lawnmower,mushroom,car,binoculars,cat,cow,corn,dog,bread,5,0,3.6214,0.0004,cat,anim_natural,0,scrambled,1,6,24,7,1,,,,,,
62f6e81d42e7c4dea045f2fc,2025-08-21_11h37.21.055,GLINT,2024.2.4,Win32,7.10732054,,,,,,,,,,,,,,,,,,,,butterfly,anim_natural,3,train,airplane,butterfly,avocado,bear,cow,car,corn,apple,3,1,1.4672,0.000200001,butterfly,anim_natural,1,scrambled,1,7,25,1,1,,,,,,
62f6e81d42e7c4dea045f2fc,2025-08-21_11h37.21.055,GLINT,2024.2.4,Win32,7.10732054,,,,,,,,,,,,,,,,,,,,lawnmower,inanim_artificial,7,airplane,binoculars,apple,cow,dog,pineapple,lawnmower,avocado,snail,7,1,2.9572,0.0002,lawnmower,inanim_artificial,1,scrambled,1,8,26,16,1,,,,,,
62f6e81d42e7c4dea045f2fc,2025-08-21_11h37.21.055,GLINT,2024.2.4,Win32,7.10732054,,,,,,,,,,,,,,,,,,,,house,inanim_artificial,5,mushroom,lawnmower,bear,bread,house,cow,car,avocado,cat,5,1,0.9233,,house,inanim_artificial,1,scrambled,1,9,27,15,1,,,,,,
62f6e81d42e7c4dea045f2fc,2025-08-21_11h37.21.055,GLINT,2024.2.4,Win32,7.10732054,,,,,,,,,,,,,,,,,,,,airplane,inanim_artificial,4,bear,cat,train,airplane,corn,mushroom,apple,house,cow,4,1,1.301900001,,airplane,inanim_artificial,1,scrambled,1,10,28,12,1,,,,,,
62f6e81d42e7c4dea045f2fc,2025-08-21_11h37.21.055,GLINT,2024.2.4,Win32,7.10732054,,,,,,,,,,,,,,,,,,,,corn,inanim_natural,5,mushroom,snail,dog,train,corn,airplane,cat,car,avocado,5,1,0.9135,0.0003,corn,inanim_natural,1,scrambled,1,11,29,10,1,,,,,,
62f6e81d42e7c4dea045f2fc,2025-08-21_11h37.21.055,GLINT,2024.2.4,Win32,7.10732054,,,,,,,,,,,,,,,,,,,,pineapple,inanim_natural,6,snail,bear,car,house,mushroom,pineapple,binoculars,cat,corn,6,1,1.1048,0.0003,pineapple,inanim_natural,1,scrambled,1,12,30,8,1,,,,,,
62f6e81d42e7c4dea045f2fc,2025-08-21_11h37.21.055,GLINT,2024.2.4,Win32,7.10732054,,,,,,,,,,,,,,,,,,,,avocado,inanim_natural,7,cow,house,apple,cat,snail,corn,avocado,binoculars,car,7,1,1.8519,0.0003,avocado,inanim_natural,1,scrambled,1,13,31,11,1,,,,,,
62f6e81d42e7c4dea045f2fc,2025-08-21_11h37.21.055,GLINT,2024.2.4,Win32,7.10732054,,,,,,,,,,,,,,,,,,,,apple,inanim_natural,6,pineapple,mushroom,house,car,dog,apple,binoculars,cat,snail,6,1,1.8324,,apple,inanim_natural,1,scrambled,1,14,32,9,1,,,,,,
62f6e81d42e7c4dea045f2fc,2025-08-21_11h37.21.055,GLINT,2024.2.4,Win32,7.10732054,,,,,,,,,,,,,,,,,,,,snail,anim_natural,1,snail,apple,mushroom,cow,binoculars,bear,lawnmower,corn,airplane,1,1,2.4035,,snail,anim_natural,1,scrambled,1,15,33,5,1,,,,,,
62f6e81d42e7c4dea045f2fc,2025-08-21_11h37.21.055,GLINT,2024.2.4,Win32,7.10732054,,,,,,,,,,,,,,,,,,,,car,inanim_artificial,5,house,cow,mushroom,avocado,car,butterfly,airplane,dog,apple,5,1,0.9458,0.0003,car,inanim_artificial,1,scrambled,1,16,34,14,1,,,,,,
62f6e81d42e7c4dea045f2fc,2025-08-21_11h37.21.055,GLINT,2024.2.4,Win32,7.10732054,,,,,,,,,,,,,,,,,,,,bread,inanim_natural,1,bread,butterfly,airplane,bear,pineapple,binoculars,train,snail,corn,8,0,1.704,,snail,anim_natural,0,scrambled,1,17,35,6,1,,,,,,
62f6e81d42e7c4dea045f2fc,2025-08-21_11h37.21.055,GLINT,2024.2.4,Win32,7.10732054,,,,,,,,,,,,,,,,,,,,car,inanim_artificial,4,corn,cat,bear,car,bread,butterfly,binoculars,airplane,apple,4,1,1.6608,0.0003,car,inanim_artificial,1,scrambled,2,0,36,14,1,,,,,,
62f6e81d42e7c4dea045f2fc,2025-08-21_11h37.21.055,GLINT,2024.2.4,Win32,7.10732054,,,,,,,,,,,,,,,,,,,,butterfly,anim_natural,6,avocado,mushroom,lawnmower,cow,cat,butterfly,corn,airplane,house,6,1,1.657700001,0.000299999,butterfly,anim_natural,1,scrambled,2,1,37,1,1,,,,,,
62f6e81d42e7c4dea045f2fc,2025-08-21_11h37.21.055,GLINT,2024.2.4,Win32,7.10732054,,,,,,,,,,,,,,,,,,,,dog,anim_natural,5,butterfly,bear,house,apple,dog,airplane,train,pineapple,mushroom,5,1,1.660099999,0.0001,dog,anim_natural,1,scrambled,2,2,38,4,1,,,,,,
62f6e81d42e7c4dea045f2fc,2025-08-21_11h37.21.055,GLINT,2024.2.4,Win32,7.10732054,,,,,,,,,,,,,,,,,,,,lawnmower,inanim_artificial,2,binoculars,lawnmower,avocado,cow,car,mushroom,cat,pineapple,dog,2,1,1.835900001,,lawnmower,inanim_artificial,1,scrambled,2,3,39,16,1,,,,,,
62f6e81d42e7c4dea045f2fc,2025-08-21_11h37.21.055,GLINT,2024.2.4,Win32,7.10732054,,,,,,,,,,,,,,,,,,,,house,inanim_artificial,1,house,butterfly,dog,apple,corn,car,lawnmower,avocado,cow,1,1,1.833700001,,house,inanim_artificial,1,scrambled,2,4,40,15,1,,,,,,
62f6e81d42e7c4dea045f2fc,2025-08-21_11h37.21.055,GLINT,2024.2.4,Win32,7.10732054,,,,,,,,,,,,,,,,,,,,pineapple,inanim_natural,3,car,corn,pineapple,cat,cow,dog,binoculars,mushroom,train,3,1,1.0954,,pineapple,inanim_natural,1,scrambled,2,5,41,8,1,,,,,,
62f6e81d42e7c4dea045f2fc,2025-08-21_11h37.21.055,GLINT,2024.2.4,Win32,7.10732054,,,,,,,,,,,,,,,,,,,,binoculars,inanim_artificial,2,train,binoculars,butterfly,corn,pineapple,airplane,bear,dog,bread,2,1,1.6542,0.000200001,binoculars,inanim_artificial,1,scrambled,2,6,42,13,1,,,,,,
62f6e81d42e7c4dea045f2fc,2025-08-21_11h37.21.055,GLINT,2024.2.4,Win32,7.10732054,,,,,,,,,,,,,,,,,,,,cat,anim_natural,4,train,snail,lawnmower,cat,airplane,dog,mushroom,pineapple,bread,4,1,1.8482,0.0003,cat,anim_natural,1,scrambled,2,7,43,2,1,,,,,,
62f6e81d42e7c4dea045f2fc,2025-08-21_11h37.21.055,GLINT,2024.2.4,Win32,7.10732054,,,,,,,,,,,,,,,,,,,,train,inanim_artificial,7,bear,corn,butterfly,bread,snail,car,train,house,mushroom,7,1,2.572,9.99994E-05,train,inanim_artificial,1,scrambled,2,8,44,17,1,,,,,,
62f6e81d42e7c4dea045f2fc,2025-08-21_11h37.21.055,GLINT,2024.2.4,Win32,7.10732054,,,,,,,,,,,,,,,,,,,,snail,anim_natural,7,airplane,pineapple,apple,cat,house,train,snail,corn,butterfly,7,1,2.372,,snail,anim_natural,1,scrambled,2,9,45,5,1,,,,,,
62f6e81d42e7c4dea045f2fc,2025-08-21_11h37.21.055,GLINT,2024.2.4,Win32,7.10732054,,,,,,,,,,,,,,,,,,,,cow,anim_natural,4,lawnmower,corn,train,cow,apple,airplane,pineapple,cat,butterfly,4,1,2.0842,0.0002,cow,anim_natural,1,scrambled,2,10,46,3,1,,,,,,
62f6e81d42e7c4dea045f2fc,2025-08-21_11h37.21.055,GLINT,2024.2.4,Win32,7.10732054,,,,,,,,,,,,,,,,,,,,apple,inanim_natural,6,binoculars,snail,corn,pineapple,bear,apple,train,car,butterfly,6,1,1.8628,0.000299999,apple,inanim_natural,1,scrambled,2,11,47,9,1,,,,,,
62f6e81d42e7c4dea045f2fc,2025-08-21_11h37.21.055,GLINT,2024.2.4,Win32,7.10732054,,,,,,,,,,,,,,,,,,,,bear,anim_natural,6,train,house,butterfly,pineapple,airplane,bear,cat,avocado,apple,6,1,1.1156,0.0002,bear,anim_natural,1,scrambled,2,12,48,0,1,,,,,,
62f6e81d42e7c4dea045f2fc,2025-08-21_11h37.21.055,GLINT,2024.2.4,Win32,7.10732054,,,,,,,,,,,,,,,,,,,,bread,inanim_natural,3,cow,lawnmower,bread,car,apple,binoculars,snail,cat,corn,3,1,2.199599999,,bread,inanim_natural,1,scrambled,2,13,49,6,1,,,,,,
62f6e81d42e7c4dea045f2fc,2025-08-21_11h37.21.055,GLINT,2024.2.4,Win32,7.10732054,,,,,,,,,,,,,,,,,,,,corn,inanim_natural,8,house,car,avocado,dog,train,pineapple,bear,corn,snail,8,1,1.8419,0.000200001,corn,inanim_natural,1,scrambled,2,14,50,10,1,,,,,,
62f6e81d42e7c4dea045f2fc,2025-08-21_11h37.21.055,GLINT,2024.2.4,Win32,7.10732054,,,,,,,,,,,,,,,,,,,,avocado,inanim_natural,8,apple,house,mushroom,cow,lawnmower,airplane,snail,avocado,bear,8,1,2.230599999,,avocado,inanim_natural,1,scrambled,2,15,51,11,1,,,,,,
62f6e81d42e7c4dea045f2fc,2025-08-21_11h37.21.055,GLINT,2024.2.4,Win32,7.10732054,,,,,,,,,,,,,,,,,,,,airplane,inanim_artificial,4,bread,cow,pineapple,airplane,butterfly,house,car,mushroom,bear,4,1,1.48,0.0002,airplane,inanim_artificial,1,scrambled,2,16,52,12,1,,,,,,
62f6e81d42e7c4dea045f2fc,2025-08-21_11h37.21.055,GLINT,2024.2.4,Win32,7.10732054,,,,,,,,,,,,,,,,,,,,mushroom,inanim_natural,1,mushroom,corn,dog,butterfly,lawnmower,cat,house,avocado,binoculars,1,1,2.948400001,0.0004,mushroom,inanim_natural,1,scrambled,2,17,53,7,1,,,,,,
62f6e81d42e7c4dea045f2fc,2025-08-21_11h37.21.055,GLINT,2024.2.4,Win32,7.10732054,,,,,,,,,,,,,,,,,,,,bread,inanim_natural,2,avocado,bread,snail,bear,airplane,mushroom,butterfly,lawnmower,car,2,1,1.671,0.0002,bread,inanim_natural,1,scrambled,3,0,54,6,1,,,,,,
62f6e81d42e7c4dea045f2fc,2025-08-21_11h37.21.055,GLINT,2024.2.4,Win32,7.10732054,,,,,,,,,,,,,,,,,,,,apple,inanim_natural,7,butterfly,house,bear,corn,mushroom,dog,apple,car,airplane,7,1,2.3801,,apple,inanim_natural,1,scrambled,3,1,55,9,1,,,,,,
62f6e81d42e7c4dea045f2fc,2025-08-21_11h37.21.055,GLINT,2024.2.4,Win32,7.10732054,,,,,,,,,,,,,,,,,,,,bear,anim_natural,3,train,house,bear,bread,corn,dog,avocado,binoculars,butterfly,3,1,2.0671,0.0002,bear,anim_natural,1,scrambled,3,2,56,0,1,,,,,,
62f6e81d42e7c4dea045f2fc,2025-08-21_11h37.21.055,GLINT,2024.2.4,Win32,7.10732054,,,,,,,,,,,,,,,,,,,,corn,inanim_natural,3,pineapple,avocado,corn,bear,train,house,butterfly,lawnmower,cat,3,1,2.0163,0.0002,corn,inanim_natural,1,scrambled,3,3,57,10,1,,,,,,
62f6e81d42e7c4dea045f2fc,2025-08-21_11h37.21.055,GLINT,2024.2.4,Win32,7.10732054,,,,,,,,,,,,,,,,,,,,car,inanim_artificial,6,corn,house,cat,airplane,bread,car,snail,butterfly,mushroom,6,1,2.017,,car,inanim_artificial,1,scrambled,3,4,58,14,1,,,,,,
62f6e81d42e7c4dea045f2fc,2025-08-21_11h37.21.055,GLINT,2024.2.4,Win32,7.10732054,,,,,,,,,,,,,,,,,,,,snail,anim_natural,8,pineapple,house,apple,lawnmower,cow,train,dog,snail,corn,8,1,1.2942,0.0003,snail,anim_natural,1,scrambled,3,5,59,5,1,,,,,,
62f6e81d42e7c4dea045f2fc,2025-08-21_11h37.21.055,GLINT,2024.2.4,Win32,7.10732054,,,,,,,,,,,,,,,,,,,,lawnmower,inanim_artificial,4,house,avocado,butterfly,lawnmower,binoculars,cat,corn,bread,snail,4,1,2.0179,,lawnmower,inanim_artificial,1,scrambled,3,6,60,16,1,,,,,,
62f6e81d42e7c4dea045f2fc,2025-08-21_11h37.21.055,GLINT,2024.2.4,Win32,7.10732054,,,,,,,,,,,,,,,,,,,,avocado,inanim_natural,5,train,snail,apple,airplane,avocado,pineapple,butterfly,car,cow,5,1,2.312400001,0.0002,avocado,inanim_natural,1,scrambled,3,7,61,11,1,,,,,,
62f6e81d42e7c4dea045f2fc,2025-08-21_11h37.21.055,GLINT,2024.2.4,Win32,7.10732054,,,,,,,,,,,,,,,,,,,,dog,anim_natural,8,train,bread,bear,binoculars,mushroom,corn,cow,dog,lawnmower,8,1,1.6741,,dog,anim_natural,1,scrambled,3,8,62,4,1,,,,,,
62f6e81d42e7c4dea045f2fc,2025-08-21_11h37.21.055,GLINT,2024.2.4,Win32,7.10732054,,,,,,,,,,,,,,,,,,,,cow,anim_natural,9,avocado,bread,butterfly,binoculars,apple,house,airplane,snail,cow,2,0,2.7395,0.0004,bread,inanim_natural,0,scrambled,3,9,63,3,1,,,,,,
62f6e81d42e7c4dea045f2fc,2025-08-21_11h37.21.055,GLINT,2024.2.4,Win32,7.10732054,,,,,,,,,,,,,,,,,,,,house,inanim_artificial,2,cat,house,butterfly,lawnmower,avocado,mushroom,corn,snail,airplane,2,1,3.4313,0.0002,house,inanim_artificial,1,scrambled,3,10,64,15,1,,,,,,
62f6e81d42e7c4dea045f2fc,2025-08-21_11h37.21.055,GLINT,2024.2.4,Win32,7.10732054,,,,,,,,,,,,,,,,,,,,pineapple,inanim_natural,4,train,snail,corn,pineapple,cat,butterfly,house,apple,car,4,1,1.397900001,0.000299999,pineapple,inanim_natural,1,scrambled,3,11,65,8,1,,,,,,
62f6e81d42e7c4dea045f2fc,2025-08-21_11h37.21.055,GLINT,2024.2.4,Win32,7.10732054,,,,,,,,,,,,,,,,,,,,airplane,inanim_artificial,3,avocado,cat,airplane,house,snail,apple,dog,lawnmower,bread,3,1,1.6293,0.0003,airplane,inanim_artificial,1,scrambled,3,12,66,12,1,,,,,,
62f6e81d42e7c4dea045f2fc,2025-08-21_11h37.21.055,GLINT,2024.2.4,Win32,7.10732054,,,,,,,,,,,,,,,,,,,,cat,anim_natural,4,airplane,avocado,butterfly,cat,lawnmower,snail,mushroom,train,corn,4,1,1.2641,,cat,anim_natural,1,scrambled,3,13,67,2,1,,,,,,
62f6e81d42e7c4dea045f2fc,2025-08-21_11h37.21.055,GLINT,2024.2.4,Win32,7.10732054,,,,,,,,,,,,,,,,,,,,binoculars,inanim_artificial,4,dog,train,car,binoculars,corn,bear,butterfly,avocado,mushroom,4,1,3.2333,0.0003,binoculars,inanim_artificial,1,scrambled,3,14,68,13,1,,,,,,
62f6e81d42e7c4dea045f2fc,2025-08-21_11h37.21.055,GLINT,2024.2.4,Win32,7.10732054,,,,,,,,,,,,,,,,,,,,mushroom,inanim_natural,4,pineapple,house,dog,mushroom,apple,binoculars,bear,butterfly,lawnmower,8,0,2.9094,0.0003,butterfly,anim_natural,0,scrambled,3,15,69,7,1,,,,,,
62f6e81d42e7c4dea045f2fc,2025-08-21_11h37.21.055,GLINT,2024.2.4,Win32,7.10732054,,,,,,,,,,,,,,,,,,,,butterfly,anim_natural,8,airplane,train,snail,apple,bread,car,dog,butterfly,avocado,8,1,1.897400001,0.0002,butterfly,anim_natural,1,scrambled,3,16,70,1,1,,,,,,
62f6e81d42e7c4dea045f2fc,2025-08-21_11h37.21.055,GLINT,2024.2.4,Win32,7.10732054,,,,,,,,,,,,,,,,,,,,train,inanim_artificial,4,cat,snail,apple,train,lawnmower,mushroom,corn,airplane,butterfly,4,1,2.546,,train,inanim_artificial,1,scrambled,3,17,71,17,1,,,,,,
62f6e81d42e7c4dea045f2fc,2025-08-21_11h37.21.055,GLINT,2024.2.4,Win32,7.10732054,,,,,,,,,,,,,,,,,,,,,,,,,,,,,,,,,,,,,,,,,,,,,0,1,1,2,1,scrambled
62f6e81d42e7c4dea045f2fc,2025-08-21_11h37.21.055,GLINT,2024.2.4,Win32,7.10732054,,,,,,,,,,,,,,,,,,,,bear,anim_natural,7,avocado,snail,apple,bread,binoculars,dog,bear,train,house,7,1,2.8276,,bear,anim_natural,1,natural,0,0,0,0,1,,,,,,
62f6e81d42e7c4dea045f2fc,2025-08-21_11h37.21.055,GLINT,2024.2.4,Win32,7.10732054,,,,,,,,,,,,,,,,,,,,bread,inanim_natural,3,mushroom,snail,bread,bear,binoculars,corn,airplane,train,dog,3,1,1.1457,,bread,inanim_natural,1,natural,0,1,1,6,1,,,,,,
62f6e81d42e7c4dea045f2fc,2025-08-21_11h37.21.055,GLINT,2024.2.4,Win32,7.10732054,,,,,,,,,,,,,,,,,,,,train,inanim_artificial,5,cow,binoculars,apple,pineapple,train,house,snail,dog,corn,5,1,0.939200001,,train,inanim_artificial,1,natural,0,2,2,17,1,,,,,,
62f6e81d42e7c4dea045f2fc,2025-08-21_11h37.21.055,GLINT,2024.2.4,Win32,7.10732054,,,,,,,,,,,,,,,,,,,,snail,anim_natural,1,snail,binoculars,butterfly,train,avocado,apple,bread,lawnmower,bear,1,1,2.4432,,snail,anim_natural,1,natural,0,3,3,5,1,,,,,,
62f6e81d42e7c4dea045f2fc,2025-08-21_11h37.21.055,GLINT,2024.2.4,Win32,7.10732054,,,,,,,,,,,,,,,,,,,,mushroom,inanim_natural,5,apple,binoculars,butterfly,house,mushroom,snail,train,pineapple,dog,5,1,1.1771,0.0004,mushroom,inanim_natural,1,natural,0,4,4,7,1,,,,,,
62f6e81d42e7c4dea045f2fc,2025-08-21_11h37.21.055,GLINT,2024.2.4,Win32,7.10732054,,,,,,,,,,,,,,,,,,,,apple,inanim_natural,2,car,apple,snail,train,house,pineapple,dog,bread,butterfly,2,1,1.484200001,,apple,inanim_natural,1,natural,0,5,5,9,1,,,,,,
62f6e81d42e7c4dea045f2fc,2025-08-21_11h37.21.055,GLINT,2024.2.4,Win32,7.10732054,,,,,,,,,,,,,,,,,,,,house,inanim_artificial,8,corn,dog,car,pineapple,cat,avocado,airplane,house,snail,8,1,2.227,0.0002,house,inanim_artificial,1,natural,0,6,6,15,1,,,,,,
62f6e81d42e7c4dea045f2fc,2025-08-21_11h37.21.055,GLINT,2024.2.4,Win32,7.10732054,,,,,,,,,,,,,,,,,,,,corn,inanim_natural,9,house,butterfly,bread,pineapple,car,lawnmower,cow,cat,corn,9,1,2.0347,0.0002,corn,inanim_natural,1,natural,0,7,7,10,1,,,,,,
62f6e81d42e7c4dea045f2fc,2025-08-21_11h37.21.055,GLINT,2024.2.4,Win32,7.10732054,,,,,,,,,,,,,,,,,,,,cat,anim_natural,4,bear,butterfly,lawnmower,cat,house,car,avocado,apple,pineapple,4,1,1.4885,0.0003,cat,anim_natural,1,natural,0,8,8,2,1,,,,,,
62f6e81d42e7c4dea045f2fc,2025-08-21_11h37.21.055,GLINT,2024.2.4,Win32,7.10732054,,,,,,,,,,,,,,,,,,,,cow,anim_natural,4,dog,house,pineapple,cow,bear,corn,lawnmower,car,mushroom,4,1,1.1787,0.0002,cow,anim_natural,1,natural,0,9,9,3,1,,,,,,
62f6e81d42e7c4dea045f2fc,2025-08-21_11h37.21.055,GLINT,2024.2.4,Win32,7.10732054,,,,,,,,,,,,,,,,,,,,binoculars,inanim_artificial,6,corn,snail,pineapple,airplane,butterfly,binoculars,lawnmower,cat,avocado,6,1,1.149599999,0.0003,binoculars,inanim_artificial,1,natural,0,10,10,13,1,,,,,,
62f6e81d42e7c4dea045f2fc,2025-08-21_11h37.21.055,GLINT,2024.2.4,Win32,7.10732054,,,,,,,,,,,,,,,,,,,,lawnmower,inanim_artificial,7,avocado,bear,corn,butterfly,house,airplane,lawnmower,cow,pineapple,7,1,2.2323,9.99994E-05,lawnmower,inanim_artificial,1,natural,0,11,11,16,1,,,,,,
62f6e81d42e7c4dea045f2fc,2025-08-21_11h37.21.055,GLINT,2024.2.4,Win32,7.10732054,,,,,,,,,,,,,,,,,,,,dog,anim_natural,5,lawnmower,corn,house,train,dog,bear,avocado,apple,cat,5,1,0.9208,0.0002,dog,anim_natural,1,natural,0,12,12,4,1,,,,,,
62f6e81d42e7c4dea045f2fc,2025-08-21_11h37.21.055,GLINT,2024.2.4,Win32,7.10732054,,,,,,,,,,,,,,,,,,,,car,inanim_artificial,2,lawnmower,car,dog,cow,bread,corn,airplane,avocado,cat,2,1,1.4912,0.0002,car,inanim_artificial,1,natural,0,13,13,14,1,,,,,,
62f6e81d42e7c4dea045f2fc,2025-08-21_11h37.21.055,GLINT,2024.2.4,Win32,7.10732054,,,,,,,,,,,,,,,,,,,,avocado,inanim_natural,9,airplane,cow,mushroom,cat,dog,apple,binoculars,car,avocado,9,1,1.4887,,avocado,inanim_natural,1,natural,0,14,14,11,1,,,,,,
62f6e81d42e7c4dea045f2fc,2025-08-21_11h37.21.055,GLINT,2024.2.4,Win32,7.10732054,,,,,,,,,,,,,,,,,,,,butterfly,anim_natural,6,dog,pineapple,airplane,car,corn,butterfly,snail,train,apple,6,1,1.311599999,,butterfly,anim_natural,1,natural,0,15,15,1,1,,,,,,
62f6e81d42e7c4dea045f2fc,2025-08-21_11h37.21.055,GLINT,2024.2.4,Win32,7.10732054,,,,,,,,,,,,,,,,,,,,airplane,inanim_artificial,8,pineapple,binoculars,butterfly,bread,lawnmower,dog,cow,airplane,mushroom,8,1,2.4538,,airplane,inanim_artificial,1,natural,0,16,16,12,1,,,,,,
62f6e81d42e7c4dea045f2fc,2025-08-21_11h37.21.055,GLINT,2024.2.4,Win32,7.10732054,,,,,,,,,,,,,,,,,,,,pineapple,inanim_natural,3,train,bread,pineapple,binoculars,dog,bear,car,mushroom,cat,3,1,1.3113,0.0002,pineapple,inanim_natural,1,natural,0,17,17,8,1,,,,,,
62f6e81d42e7c4dea045f2fc,2025-08-21_11h37.21.055,GLINT,2024.2.4,Win32,7.10732054,,,,,,,,,,,,,,,,,,,,bear,anim_natural,9,house,train,car,dog,snail,bread,apple,avocado,bear,9,1,2.7682,,bear,anim_natural,1,natural,1,0,18,0,1,,,,,,
62f6e81d42e7c4dea045f2fc,2025-08-21_11h37.21.055,GLINT,2024.2.4,Win32,7.10732054,,,,,,,,,,,,,,,,,,,,mushroom,inanim_natural,8,pineapple,snail,train,avocado,butterfly,dog,car,mushroom,lawnmower,8,1,2.5762,,mushroom,inanim_natural,1,natural,1,1,19,7,1,,,,,,
62f6e81d42e7c4dea045f2fc,2025-08-21_11h37.21.055,GLINT,2024.2.4,Win32,7.10732054,,,,,,,,,,,,,,,,,,,,cat,anim_natural,5,avocado,snail,bear,corn,cat,lawnmower,airplane,pineapple,car,3,0,3.198299999,0.000200001,bear,anim_natural,1,natural,1,2,20,2,1,,,,,,
62f6e81d42e7c4dea045f2fc,2025-08-21_11h37.21.055,GLINT,2024.2.4,Win32,7.10732054,,,,,,,,,,,,,,,,,,,,train,inanim_artificial,3,pineapple,cow,train,airplane,avocado,cat,snail,apple,binoculars,3,1,1.3718,,train,inanim_artificial,1,natural,1,3,21,17,1,,,,,,
62f6e81d42e7c4dea045f2fc,2025-08-21_11h37.21.055,GLINT,2024.2.4,Win32,7.10732054,,,,,,,,,,,,,,,,,,,,binoculars,inanim_artificial,7,pineapple,avocado,car,cow,dog,bear,binoculars,mushroom,train,7,1,1.9169,0.0002,binoculars,inanim_artificial,1,natural,1,4,22,13,1,,,,,,
62f6e81d42e7c4dea045f2fc,2025-08-21_11h37.21.055,GLINT,2024.2.4,Win32,7.10732054,,,,,,,,,,,,,,,,,,,,butterfly,anim_natural,6,pineapple,bread,mushroom,airplane,cat,butterfly,bear,house,binoculars,6,1,2.1034,,butterfly,anim_natural,1,natural,1,5,23,1,1,,,,,,
62f6e81d42e7c4dea045f2fc,2025-08-21_11h37.21.055,GLINT,2024.2.4,Win32,7.10732054,,,,,,,,,,,,,,,,,,,,pineapple,inanim_natural,1,pineapple,cow,corn,house,train,airplane,mushroom,snail,butterfly,1,1,3.3624,0.0003,pineapple,inanim_natural,1,natural,1,6,24,8,1,,,,,,
62f6e81d42e7c4dea045f2fc,2025-08-21_11h37.21.055,GLINT,2024.2.4,Win32,7.10732054,,,,,,,,,,,,,,,,,,,,bread,inanim_natural,9,bear,butterfly,train,avocado,lawnmower,snail,pineapple,car,bread,9,1,3.6885,,bread,inanim_natural,1,natural,1,7,25,6,1,,,,,,
62f6e81d42e7c4dea045f2fc,2025-08-21_11h37.21.055,GLINT,2024.2.4,Win32,7.10732054,,,,,,,,,,,,,,,,,,,,dog,anim_natural,2,mushroom,dog,bear,pineapple,house,binoculars,cat,train,avocado,2,1,3.2148,0.0003,dog,anim_natural,1,natural,1,8,26,4,1,,,,,,
62f6e81d42e7c4dea045f2fc,2025-08-21_11h37.21.055,GLINT,2024.2.4,Win32,7.10732054,,,,,,,,,,,,,,,,,,,,cow,anim_natural,1,cow,mushroom,avocado,train,snail,bread,binoculars,house,cat,1,1,2.7022,0.0005,cow,anim_natural,1,natural,1,9,27,3,1,,,,,,
62f6e81d42e7c4dea045f2fc,2025-08-21_11h37.21.055,GLINT,2024.2.4,Win32,7.10732054,,,,,,,,,,,,,,,,,,,,snail,anim_natural,7,apple,train,bear,bread,house,mushroom,snail,car,cow,7,1,2.702299999,0.000200001,snail,anim_natural,1,natural,1,10,28,5,1,,,,,,
62f6e81d42e7c4dea045f2fc,2025-08-21_11h37.21.055,GLINT,2024.2.4,Win32,7.10732054,,,,,,,,,,,,,,,,,,,,airplane,inanim_artificial,5,snail,train,car,avocado,airplane,cat,apple,cow,corn,5,1,1.6698,,airplane,inanim_artificial,1,natural,1,11,29,12,1,,,,,,
62f6e81d42e7c4dea045f2fc,2025-08-21_11h37.21.055,GLINT,2024.2.4,Win32,7.10732054,,,,,,,,,,,,,,,,,,,,lawnmower,inanim_artificial,3,train,pineapple,lawnmower,cow,binoculars,butterfly,mushroom,avocado,snail,3,1,2.8128,,lawnmower,inanim_artificial,1,natural,1,12,30,16,1,,,,,,
62f6e81d42e7c4dea045f2fc,2025-08-21_11h37.21.055,GLINT,2024.2.4,Win32,7.10732054,,,,,,,,,,,,,,,,,,,,car,inanim_artificial,5,butterfly,bear,house,mushroom,car,dog,lawnmower,corn,avocado,5,1,0.9612,0.000200001,car,inanim_artificial,1,natural,1,13,31,14,1,,,,,,
62f6e81d42e7c4dea045f2fc,2025-08-21_11h37.21.055,GLINT,2024.2.4,Win32,7.10732054,,,,,,,,,,,,,,,,,,,,avocado,inanim_natural,7,mushroom,car,airplane,butterfly,snail,cow,avocado,bread,lawnmower,7,1,2.0255,,avocado,inanim_natural,1,natural,1,14,32,11,1,,,,,,
62f6e81d42e7c4dea045f2fc,2025-08-21_11h37.21.055,GLINT,2024.2.4,Win32,7.10732054,,,,,,,,,,,,,,,,,,,,apple,inanim_natural,3,pineapple,airplane,apple,car,dog,binoculars,bread,snail,bear,3,1,1.8293,,apple,inanim_natural,1,natural,1,15,33,9,1,,,,,,
62f6e81d42e7c4dea045f2fc,2025-08-21_11h37.21.055,GLINT,2024.2.4,Win32,7.10732054,,,,,,,,,,,,,,,,,,,,corn,inanim_natural,7,train,avocado,airplane,pineapple,cow,snail,corn,cat,car,7,1,2.0211,,corn,inanim_natural,1,natural,1,16,34,10,1,,,,,,
62f6e81d42e7c4dea045f2fc,2025-08-21_11h37.21.055,GLINT,2024.2.4,Win32,7.10732054,,,,,,,,,,,,,,,,,,,,house,inanim_artificial,8,cow,train,dog,snail,pineapple,apple,bread,house,car,8,1,2.5675,,house,inanim_artificial,1,natural,1,17,35,15,1,,,,,,
62f6e81d42e7c4dea045f2fc,2025-08-21_11h37.21.055,GLINT,2024.2.4,Win32,7.10732054,,,,,,,,,,,,,,,,,,,,snail,anim_natural,9,avocado,airplane,car,bear,train,pineapple,corn,butterfly,snail,9,1,2.621099999,0.000200001,snail,anim_natural,1,natural,2,0,36,5,1,,,,,,
62f6e81d42e7c4dea045f2fc,2025-08-21_11h37.21.055,GLINT,2024.2.4,Win32,7.10732054,,,,,,,,,,,,,,,,,,,,butterfly,anim_natural,9,bear,train,cow,lawnmower,bread,mushroom,binoculars,pineapple,butterfly,9,1,2.3957,0.0001,butterfly,anim_natural,1,natural,2,1,37,1,1,,,,,,
62f6e81d42e7c4dea045f2fc,2025-08-21_11h37.21.055,GLINT,2024.2.4,Win32,7.10732054,,,,,,,,,,,,,,,,,,,,car,inanim_artificial,5,butterfly,bread,bear,mushroom,car,binoculars,corn,train,cow,5,1,0.9515,0.0007,car,inanim_artificial,1,natural,2,2,38,14,1,,,,,,
62f6e81d42e7c4dea045f2fc,2025-08-21_11h37.21.055,GLINT,2024.2.4,Win32,7.10732054,,,,,,,,,,,,,,,,,,,,cat,anim_natural,1,cat,corn,bread,house,lawnmower,train,snail,pineapple,cow,1,1,1.328,0.000200001,cat,anim_natural,1,natural,2,3,39,2,1,,,,,,
62f6e81d42e7c4dea045f2fc,2025-08-21_11h37.21.055,GLINT,2024.2.4,Win32,7.10732054,,,,,,,,,,,,,,,,,,,,avocado,inanim_natural,4,pineapple,butterfly,dog,avocado,car,house,mushroom,lawnmower,bear,4,1,2.591099999,0.000200001,avocado,inanim_natural,1,natural,2,4,40,11,1,,,,,,
62f6e81d42e7c4dea045f2fc,2025-08-21_11h37.21.055,GLINT,2024.2.4,Win32,7.10732054,,,,,,,,,,,,,,,,,,,,airplane,inanim_artificial,2,train,airplane,snail,apple,cat,lawnmower,bear,corn,avocado,2,1,3.6673,0.0002,airplane,inanim_artificial,1,natural,2,5,41,12,1,,,,,,
62f6e81d42e7c4dea045f2fc,2025-08-21_11h37.21.055,GLINT,2024.2.4,Win32,7.10732054,,,,,,,,,,,,,,,,,,,,dog,anim_natural,2,apple,dog,pineapple,train,avocado,lawnmower,cat,cow,car,2,1,2.5677,0.0002,dog,anim_natural,1,natural,2,6,42,4,1,,,,,,
62f6e81d42e7c4dea045f2fc,2025-08-21_11h37.21.055,GLINT,2024.2.4,Win32,7.10732054,,,,,,,,,,,,,,,,,,,,mushroom,inanim_natural,2,bear,mushroom,dog,cow,binoculars,airplane,pineapple,apple,house,2,1,2.0312,,mushroom,inanim_natural,1,natural,2,7,43,7,1,,,,,,
62f6e81d42e7c4dea045f2fc,2025-08-21_11h37.21.055,GLINT,2024.2.4,Win32,7.10732054,,,,,,,,,,,,,,,,,,,,apple,inanim_natural,3,airplane,corn,apple,mushroom,cow,binoculars,house,dog,snail,3,1,1.8416,9.99994E-05,apple,inanim_natural,1,natural,2,8,44,9,1,,,,,,
62f6e81d42e7c4dea045f2fc,2025-08-21_11h37.21.055,GLINT,2024.2.4,Win32,7.10732054,,,,,,,,,,,,,,,,,,,,train,inanim_artificial,9,cow,dog,pineapple,bear,apple,avocado,lawnmower,airplane,train,9,1,2.209299999,,train,inanim_artificial,1,natural,2,9,45,17,1,,,,,,
62f6e81d42e7c4dea045f2fc,2025-08-21_11h37.21.055,GLINT,2024.2.4,Win32,7.10732054,,,,,,,,,,,,,,,,,,,,lawnmower,inanim_artificial,1,lawnmower,train,bread,snail,house,mushroom,corn,cat,dog,1,1,1.6615,0.0002,lawnmower,inanim_artificial,1,natural,2,10,46,16,1,,,,,,
62f6e81d42e7c4dea045f2fc,2025-08-21_11h37.21.055,GLINT,2024.2.4,Win32,7.10732054,,,,,,,,,,,,,,,,,,,,cow,anim_natural,6,binoculars,butterfly,dog,car,lawnmower,cow,pineapple,corn,avocado,6,1,3.721599999,,cow,anim_natural,1,natural,2,11,47,3,1,,,,,,
62f6e81d42e7c4dea045f2fc,2025-08-21_11h37.21.055,GLINT,2024.2.4,Win32,7.10732054,,,,,,,,,,,,,,,,,,,,binoculars,inanim_artificial,4,bread,cow,pineapple,binoculars,corn,car,lawnmower,dog,cat,4,1,1.6543,0.000299999,binoculars,inanim_artificial,1,natural,2,12,48,13,1,,,,,,
62f6e81d42e7c4dea045f2fc,2025-08-21_11h37.21.055,GLINT,2024.2.4,Win32,7.10732054,,,,,,,,,,,,,,,,,,,,pineapple,inanim_natural,7,train,airplane,cat,avocado,lawnmower,bear,pineapple,snail,apple,7,1,1.477599999,,pineapple,inanim_natural,1,natural,2,13,49,8,1,,,,,,
62f6e81d42e7c4dea045f2fc,2025-08-21_11h37.21.055,GLINT,2024.2.4,Win32,7.10732054,,,,,,,,,,,,,,,,,,,,house,inanim_artificial,9,apple,bear,corn,lawnmower,dog,binoculars,pineapple,butterfly,house,9,1,2.2215,0.0003,house,inanim_artificial,1,natural,2,14,50,15,1,,,,,,
62f6e81d42e7c4dea045f2fc,2025-08-21_11h37.21.055,GLINT,2024.2.4,Win32,7.10732054,,,,,,,,,,,,,,,,,,,,bear,anim_natural,6,car,dog,bread,avocado,cat,bear,corn,lawnmower,train,6,1,2.6189,0.0003,bear,anim_natural,1,natural,2,15,51,0,1,,,,,,
62f6e81d42e7c4dea045f2fc,2025-08-21_11h37.21.055,GLINT,2024.2.4,Win32,7.10732054,,,,,,,,,,,,,,,,,,,,bread,inanim_natural,7,bear,house,dog,airplane,corn,car,bread,butterfly,apple,7,1,2.3805,,bread,inanim_natural,1,natural,2,16,52,6,1,,,,,,
62f6e81d42e7c4dea045f2fc,2025-08-21_11h37.21.055,GLINT,2024.2.4,Win32,7.10732054,,,,,,,,,,,,,,,,,,,,corn,inanim_natural,8,car,airplane,train,butterfly,pineapple,mushroom,cat,corn,snail,8,1,2.2218,,corn,inanim_natural,1,natural,2,17,53,10,1,,,,,,
62f6e81d42e7c4dea045f2fc,2025-08-21_11h37.21.055,GLINT,2024.2.4,Win32,7.10732054,,,,,,,,,,,,,,,,,,,,bread,inanim_natural,7,house,airplane,car,apple,pineapple,snail,bread,dog,bear,7,1,2.794799999,0.000200001,bread,inanim_natural,1,natural,3,0,54,6,1,,,,,,
62f6e81d42e7c4dea045f2fc,2025-08-21_11h37.21.055,GLINT,2024.2.4,Win32,7.10732054,,,,,,,,,,,,,,,,,,,,cow,anim_natural,3,house,apple,cow,butterfly,pineapple,snail,car,corn,lawnmower,5,0,3.9128,0.000400001,pineapple,inanim_natural,0,natural,3,1,55,3,1,,,,,,
62f6e81d42e7c4dea045f2fc,2025-08-21_11h37.21.055,GLINT,2024.2.4,Win32,7.10732054,,,,,,,,,,,,,,,,,,,,dog,anim_natural,8,lawnmower,butterfly,house,snail,car,avocado,pineapple,dog,corn,8,1,1.4836,0.0002,dog,anim_natural,1,natural,3,2,56,4,1,,,,,,
62f6e81d42e7c4dea045f2fc,2025-08-21_11h37.21.055,GLINT,2024.2.4,Win32,7.10732054,,,,,,,,,,,,,,,,,,,,house,inanim_artificial,2,dog,house,corn,bread,lawnmower,airplane,butterfly,cow,mushroom,2,1,3.6652,,house,inanim_artificial,1,natural,3,3,57,15,1,,,,,,
62f6e81d42e7c4dea045f2fc,2025-08-21_11h37.21.055,GLINT,2024.2.4,Win32,7.10732054,,,,,,,,,,,,,,,,,,,,pineapple,inanim_natural,9,apple,bear,lawnmower,train,avocado,cow,cat,house,pineapple,9,1,2.5896,9.99994E-05,pineapple,inanim_natural,1,natural,3,4,58,8,1,,,,,,
62f6e81d42e7c4dea045f2fc,2025-08-21_11h37.21.055,GLINT,2024.2.4,Win32,7.10732054,,,,,,,,,,,,,,,,,,,,snail,anim_natural,8,cow,dog,corn,lawnmower,car,house,avocado,snail,apple,8,1,2.4073,,snail,anim_natural,1,natural,3,5,59,5,1,,,,,,
62f6e81d42e7c4dea045f2fc,2025-08-21_11h37.21.055,GLINT,2024.2.4,Win32,7.10732054,,,,,,,,,,,,,,,,,,,,car,inanim_artificial,2,snail,car,butterfly,cat,avocado,corn,train,airplane,mushroom,2,1,1.6743,0.000299999,car,inanim_artificial,1,natural,3,6,60,14,1,,,,,,
62f6e81d42e7c4dea045f2fc,2025-08-21_11h37.21.055,GLINT,2024.2.4,Win32,7.10732054,,,,,,,,,,,,,,,,,,,,mushroom,inanim_natural,7,bear,train,cow,avocado,car,snail,mushroom,pineapple,binoculars,7,1,2.21,0.000299999,mushroom,inanim_natural,1,natural,3,7,61,7,1,,,,,,
62f6e81d42e7c4dea045f2fc,2025-08-21_11h37.21.055,GLINT,2024.2.4,Win32,7.10732054,,,,,,,,,,,,,,,,,,,,binoculars,inanim_artificial,2,car,binoculars,corn,mushroom,house,snail,bear,avocado,cat,2,1,1.8738,0.0002,binoculars,inanim_artificial,1,natural,3,8,62,13,1,,,,,,
62f6e81d42e7c4dea045f2fc,2025-08-21_11h37.21.055,GLINT,2024.2.4,Win32,7.10732054,,,,,,,,,,,,,,,,,,,,lawnmower,inanim_artificial,4,cat,butterfly,train,lawnmower,apple,car,snail,pineapple,mushroom,4,1,1.868400001,,lawnmower,inanim_artificial,1,natural,3,9,63,16,1,,,,,,
62f6e81d42e7c4dea045f2fc,2025-08-21_11h37.21.055,GLINT,2024.2.4,Win32,7.10732054,,,,,,,,,,,,,,,,,,,,butterfly,anim_natural,1,butterfly,car,lawnmower,avocado,train,bear,apple,snail,mushroom,1,1,2.765,0.0003,butterfly,anim_natural,1,natural,3,10,64,1,1,,,,,,
62f6e81d42e7c4dea045f2fc,2025-08-21_11h37.21.055,GLINT,2024.2.4,Win32,7.10732054,,,,,,,,,,,,,,,,,,,,airplane,inanim_artificial,7,corn,cow,bear,butterfly,lawnmower,mushroom,airplane,pineapple,binoculars,7,1,2.2408,0.000400001,airplane,inanim_artificial,1,natural,3,11,65,12,1,,,,,,
62f6e81d42e7c4dea045f2fc,2025-08-21_11h37.21.055,GLINT,2024.2.4,Win32,7.10732054,,,,,,,,,,,,,,,,,,,,corn,inanim_natural,6,butterfly,cat,lawnmower,bear,apple,corn,train,avocado,airplane,6,1,2.766,0.0003,corn,inanim_natural,1,natural,3,12,66,10,1,,,,,,
62f6e81d42e7c4dea045f2fc,2025-08-21_11h37.21.055,GLINT,2024.2.4,Win32,7.10732054,,,,,,,,,,,,,,,,,,,,bear,anim_natural,5,bread,airplane,cat,train,bear,pineapple,lawnmower,butterfly,avocado,5,1,1.8575,,bear,anim_natural,1,natural,3,13,67,0,1,,,,,,
62f6e81d42e7c4dea045f2fc,2025-08-21_11h37.21.055,GLINT,2024.2.4,Win32,7.10732054,,,,,,,,,,,,,,,,,,,,train,inanim_artificial,9,bear,pineapple,bread,cat,butterfly,corn,house,car,train,9,1,3.141,0.0003,train,inanim_artificial,1,natural,3,14,68,17,1,,,,,,
62f6e81d42e7c4dea045f2fc,2025-08-21_11h37.21.055,GLINT,2024.2.4,Win32,7.10732054,,,,,,,,,,,,,,,,,,,,cat,anim_natural,9,pineapple,butterfly,apple,lawnmower,snail,train,bread,house,cat,9,1,2.202099999,,cat,anim_natural,1,natural,3,15,69,2,1,,,,,,
62f6e81d42e7c4dea045f2fc,2025-08-21_11h37.21.055,GLINT,2024.2.4,Win32,7.10732054,,,,,,,,,,,,,,,,,,,,apple,inanim_natural,5,avocado,car,lawnmower,airplane,apple,butterfly,bear,snail,pineapple,5,1,0.967900001,0.0004,apple,inanim_natural,1,natural,3,16,70,9,1,,,,,,
62f6e81d42e7c4dea045f2fc,2025-08-21_11h37.21.055,GLINT,2024.2.4,Win32,7.10732054,,,,,,,,,,,,,,,,,,,,avocado,inanim_natural,1,avocado,dog,mushroom,corn,binoculars,house,butterfly,snail,car,1,1,2.9455,,avocado,inanim_natural,1,natural,3,17,71,11,1,,,,,,
62f6e81d42e7c4dea045f2fc,2025-08-21_11h37.21.055,GLINT,2024.2.4,Win32,7.10732054,,,,,,,,,,,,,,,,,,,,,,,,,,,,,,,,,,,,,,,,,,,,,0,2,2,0,1,natural
