participant,date,expName,psychopyVersion,OS,frameRate,CorrectResponse,prac_prompt_1,prac_prompt_2,prac_prompt_3,prac_prompt_4,prac_prompt_5,prac_prompt_6,prac_prompt_7,prac_prompt_8,prac_prompt_9,prac_key_resp.keys,prac_key_resp.corr,prac_key_resp.rt,prac_key_resp.duration,prac_loop.thisRepN,prac_loop.thisTrialN,prac_loop.thisN,prac_loop.thisIndex,prac_loop.ran,object_class,object_category,corr_ans,prompt_1,prompt_2,prompt_3,prompt_4,prompt_5,prompt_6,prompt_7,prompt_8,prompt_9,key_resp.keys,key_resp.corr,response_label,response_animacy,corr_animacy,img_condition,test_loop.thisRepN,test_loop.thisTrialN,test_loop.thisN,test_loop.thisIndex,test_loop.ran,key_resp.rt,key_resp.duration,randomize_blocks.thisRepN,randomize_blocks.thisTrialN,randomize_blocks.thisN,randomize_blocks.thisIndex,randomize_blocks.ran,block_condition
63d96d5957cdd8a417721253,2025-08-21_16h45.26.362,GLINT,2024.2.4,Win32,119.9040767,,,,,,,,,,,,,,,,,,,,,,,,,,,,,,,,,,,,,,,,,,,,,,,,,,
63d96d5957cdd8a417721253,2025-08-21_16h45.26.362,GLINT,2024.2.4,Win32,119.9040767,,,,,,,,,,,,,,,,,,,,,,,,,,,,,,,,,,,,,,,,,,,,,,,,,,
63d96d5957cdd8a417721253,2025-08-21_16h45.26.362,GLINT,2024.2.4,Win32,119.9040767,,,,,,,,,,,,,,,,,,,,,,,,,,,,,,,,,,,,,,,,,,,,,,,,,,
63d96d5957cdd8a417721253,2025-08-21_16h45.26.362,GLINT,2024.2.4,Win32,119.9040767,3,chair,dog,flower,tree,truck,duck,leaf,bicycle,hand,7,0,6.794,,0,0,0,3,1,flower,inanim_natural,,,,,,,,,,,,,,,,,,,,,,,,,,,,,
63d96d5957cdd8a417721253,2025-08-21_16h45.26.362,GLINT,2024.2.4,Win32,119.9040767,9,flower,leaf,bicycle,hand,dog,chair,duck,truck,tree,9,1,3.191,,0,1,1,4,1,tree,inanim_natural,,,,,,,,,,,,,,,,,,,,,,,,,,,,,
63d96d5957cdd8a417721253,2025-08-21_16h45.26.362,GLINT,2024.2.4,Win32,119.9040767,5,chair,duck,leaf,flower,dog,hand,tree,truck,bicycle,5,1,3.083,,0,2,2,2,1,dog,anim_natural,,,,,,,,,,,,,,,,,,,,,,,,,,,,,
63d96d5957cdd8a417721253,2025-08-21_16h45.26.362,GLINT,2024.2.4,Win32,119.9040767,3,chair,flower,hand,tree,truck,leaf,duck,bicycle,dog,3,1,2.546,,0,3,3,0,1,hand,anim_natural,,,,,,,,,,,,,,,,,,,,,,,,,,,,,
63d96d5957cdd8a417721253,2025-08-21_16h45.26.362,GLINT,2024.2.4,Win32,119.9040767,1,duck,truck,dog,flower,leaf,chair,tree,hand,bicycle,1,1,3.527,,0,4,4,1,1,duck,anim_natural,,,,,,,,,,,,,,,,,,,,,,,,,,,,,
63d96d5957cdd8a417721253,2025-08-21_16h45.26.362,GLINT,2024.2.4,Win32,119.9040767,,,,,,,,,,,,,,,,,,,,mushroom,inanim_natural,4,cow,bear,lawnmower,mushroom,avocado,car,binoculars,pineapple,dog,,0,no response,no response,0,scrambled,0,0,0,7,1,,,,,,,,
63d96d5957cdd8a417721253,2025-08-21_16h45.26.362,GLINT,2024.2.4,Win32,119.9040767,,,,,,,,,,,,,,,,,,,,lawnmower,inanim_artificial,5,pineapple,snail,bear,bread,lawnmower,mushroom,airplane,cat,binoculars,5,1,lawnmower,inanim_artificial,1,scrambled,0,1,1,16,1,1.465,,,,,,,
63d96d5957cdd8a417721253,2025-08-21_16h45.26.362,GLINT,2024.2.4,Win32,119.9040767,,,,,,,,,,,,,,,,,,,,bear,anim_natural,2,pineapple,bear,bread,cow,snail,airplane,mushroom,house,train,2,1,bear,anim_natural,1,scrambled,0,2,2,0,1,2.577,,,,,,,
63d96d5957cdd8a417721253,2025-08-21_16h45.26.362,GLINT,2024.2.4,Win32,119.9040767,,,,,,,,,,,,,,,,,,,,cow,anim_natural,2,butterfly,cow,avocado,airplane,pineapple,lawnmower,corn,house,dog,2,1,cow,anim_natural,1,scrambled,0,3,3,3,1,0.909,,,,,,,
63d96d5957cdd8a417721253,2025-08-21_16h45.26.362,GLINT,2024.2.4,Win32,119.9040767,,,,,,,,,,,,,,,,,,,,avocado,inanim_natural,2,bear,avocado,train,cat,airplane,dog,car,pineapple,mushroom,2,1,avocado,inanim_natural,1,scrambled,0,4,4,11,1,1.237,,,,,,,
63d96d5957cdd8a417721253,2025-08-21_16h45.26.362,GLINT,2024.2.4,Win32,119.9040767,,,,,,,,,,,,,,,,,,,,pineapple,inanim_natural,7,butterfly,bear,bread,avocado,snail,house,pineapple,car,airplane,7,1,pineapple,inanim_natural,1,scrambled,0,5,5,8,1,2.255,,,,,,,
63d96d5957cdd8a417721253,2025-08-21_16h45.26.362,GLINT,2024.2.4,Win32,119.9040767,,,,,,,,,,,,,,,,,,,,snail,anim_natural,6,apple,bear,corn,binoculars,airplane,snail,avocado,lawnmower,butterfly,6,1,snail,anim_natural,1,scrambled,0,6,6,5,1,1.998,,,,,,,
63d96d5957cdd8a417721253,2025-08-21_16h45.26.362,GLINT,2024.2.4,Win32,119.9040767,,,,,,,,,,,,,,,,,,,,butterfly,anim_natural,6,bear,train,bread,pineapple,house,butterfly,cow,avocado,binoculars,6,1,butterfly,anim_natural,1,scrambled,0,7,7,1,1,1.52,,,,,,,
63d96d5957cdd8a417721253,2025-08-21_16h45.26.362,GLINT,2024.2.4,Win32,119.9040767,,,,,,,,,,,,,,,,,,,,binoculars,inanim_artificial,9,cow,butterfly,bear,lawnmower,corn,avocado,bread,car,binoculars,9,1,binoculars,inanim_artificial,1,scrambled,0,8,8,13,1,2.044,,,,,,,
63d96d5957cdd8a417721253,2025-08-21_16h45.26.362,GLINT,2024.2.4,Win32,119.9040767,,,,,,,,,,,,,,,,,,,,house,inanim_artificial,3,mushroom,car,house,cow,butterfly,avocado,cat,lawnmower,corn,3,1,house,inanim_artificial,1,scrambled,0,9,9,15,1,1.279,,,,,,,
63d96d5957cdd8a417721253,2025-08-21_16h45.26.362,GLINT,2024.2.4,Win32,119.9040767,,,,,,,,,,,,,,,,,,,,cat,anim_natural,9,house,binoculars,mushroom,avocado,cow,bread,train,butterfly,cat,9,1,cat,anim_natural,1,scrambled,0,10,10,2,1,2.145,,,,,,,
63d96d5957cdd8a417721253,2025-08-21_16h45.26.362,GLINT,2024.2.4,Win32,119.9040767,,,,,,,,,,,,,,,,,,,,dog,anim_natural,4,mushroom,binoculars,snail,dog,bear,pineapple,car,train,avocado,4,1,dog,anim_natural,1,scrambled,0,11,11,4,1,3.337,,,,,,,
63d96d5957cdd8a417721253,2025-08-21_16h45.26.362,GLINT,2024.2.4,Win32,119.9040767,,,,,,,,,,,,,,,,,,,,corn,inanim_natural,8,snail,apple,cat,lawnmower,binoculars,bread,cow,corn,house,8,1,corn,inanim_natural,1,scrambled,0,12,12,10,1,2.883,,,,,,,
63d96d5957cdd8a417721253,2025-08-21_16h45.26.362,GLINT,2024.2.4,Win32,119.9040767,,,,,,,,,,,,,,,,,,,,train,inanim_artificial,4,bread,lawnmower,corn,train,mushroom,butterfly,binoculars,cat,snail,4,1,train,inanim_artificial,1,scrambled,0,13,13,17,1,2.049,,,,,,,
63d96d5957cdd8a417721253,2025-08-21_16h45.26.362,GLINT,2024.2.4,Win32,119.9040767,,,,,,,,,,,,,,,,,,,,bread,inanim_natural,1,bread,mushroom,car,cow,snail,house,butterfly,apple,lawnmower,1,1,bread,inanim_natural,1,scrambled,0,14,14,6,1,1.628,,,,,,,
63d96d5957cdd8a417721253,2025-08-21_16h45.26.362,GLINT,2024.2.4,Win32,119.9040767,,,,,,,,,,,,,,,,,,,,apple,inanim_natural,7,snail,cat,train,bread,binoculars,lawnmower,apple,avocado,butterfly,7,1,apple,inanim_natural,1,scrambled,0,15,15,9,1,2.346,,,,,,,
63d96d5957cdd8a417721253,2025-08-21_16h45.26.362,GLINT,2024.2.4,Win32,119.9040767,,,,,,,,,,,,,,,,,,,,car,inanim_artificial,2,corn,car,snail,cow,binoculars,train,bear,avocado,mushroom,2,1,car,inanim_artificial,1,scrambled,0,16,16,14,1,2.527,,,,,,,
63d96d5957cdd8a417721253,2025-08-21_16h45.26.362,GLINT,2024.2.4,Win32,119.9040767,,,,,,,,,,,,,,,,,,,,airplane,inanim_artificial,7,house,bread,butterfly,cat,pineapple,mushroom,airplane,car,cow,7,1,airplane,inanim_artificial,1,scrambled,0,17,17,12,1,2.846,,,,,,,
63d96d5957cdd8a417721253,2025-08-21_16h45.26.362,GLINT,2024.2.4,Win32,119.9040767,,,,,,,,,,,,,,,,,,,,mushroom,inanim_natural,5,corn,car,apple,airplane,mushroom,cow,house,snail,butterfly,5,1,mushroom,inanim_natural,1,scrambled,1,0,18,7,1,1.609,,,,,,,
63d96d5957cdd8a417721253,2025-08-21_16h45.26.362,GLINT,2024.2.4,Win32,119.9040767,,,,,,,,,,,,,,,,,,,,bread,inanim_natural,9,pineapple,cow,house,airplane,snail,avocado,butterfly,binoculars,bread,9,1,bread,inanim_natural,1,scrambled,1,1,19,6,1,2.431,,,,,,,
63d96d5957cdd8a417721253,2025-08-21_16h45.26.362,GLINT,2024.2.4,Win32,119.9040767,,,,,,,,,,,,,,,,,,,,pineapple,inanim_natural,3,airplane,avocado,pineapple,lawnmower,bread,train,cow,cat,butterfly,7,0,cow,anim_natural,0,scrambled,1,2,20,8,1,4.821,,,,,,,
63d96d5957cdd8a417721253,2025-08-21_16h45.26.362,GLINT,2024.2.4,Win32,119.9040767,,,,,,,,,,,,,,,,,,,,cow,anim_natural,3,binoculars,snail,cow,train,mushroom,pineapple,apple,dog,lawnmower,3,1,cow,anim_natural,1,scrambled,1,3,21,3,1,2.121,,,,,,,
63d96d5957cdd8a417721253,2025-08-21_16h45.26.362,GLINT,2024.2.4,Win32,119.9040767,,,,,,,,,,,,,,,,,,,,apple,inanim_natural,4,butterfly,pineapple,dog,apple,snail,car,bread,lawnmower,train,4,1,apple,inanim_natural,1,scrambled,1,4,22,9,1,1.379,,,,,,,
63d96d5957cdd8a417721253,2025-08-21_16h45.26.362,GLINT,2024.2.4,Win32,119.9040767,,,,,,,,,,,,,,,,,,,,train,inanim_artificial,2,car,train,cow,cat,mushroom,lawnmower,apple,bread,snail,2,1,train,inanim_artificial,1,scrambled,1,5,23,17,1,2.346,,,,,,,
63d96d5957cdd8a417721253,2025-08-21_16h45.26.362,GLINT,2024.2.4,Win32,119.9040767,,,,,,,,,,,,,,,,,,,,binoculars,inanim_artificial,2,snail,binoculars,dog,apple,train,avocado,mushroom,airplane,bear,2,1,binoculars,inanim_artificial,1,scrambled,1,6,24,13,1,1.978,,,,,,,
63d96d5957cdd8a417721253,2025-08-21_16h45.26.362,GLINT,2024.2.4,Win32,119.9040767,,,,,,,,,,,,,,,,,,,,bear,anim_natural,3,snail,bread,bear,corn,avocado,lawnmower,dog,airplane,car,3,1,bear,anim_natural,1,scrambled,1,7,25,0,1,1.677,,,,,,,
63d96d5957cdd8a417721253,2025-08-21_16h45.26.362,GLINT,2024.2.4,Win32,119.9040767,,,,,,,,,,,,,,,,,,,,avocado,inanim_natural,5,bread,dog,cow,butterfly,avocado,airplane,binoculars,lawnmower,mushroom,5,1,avocado,inanim_natural,1,scrambled,1,8,26,11,1,1.428,,,,,,,
63d96d5957cdd8a417721253,2025-08-21_16h45.26.362,GLINT,2024.2.4,Win32,119.9040767,,,,,,,,,,,,,,,,,,,,house,inanim_artificial,7,apple,snail,cow,pineapple,corn,butterfly,house,car,binoculars,7,1,house,inanim_artificial,1,scrambled,1,9,27,15,1,1.762,,,,,,,
63d96d5957cdd8a417721253,2025-08-21_16h45.26.362,GLINT,2024.2.4,Win32,119.9040767,,,,,,,,,,,,,,,,,,,,snail,anim_natural,9,pineapple,apple,dog,bread,butterfly,car,train,binoculars,snail,9,1,snail,anim_natural,1,scrambled,1,10,28,5,1,4.425,,,,,,,
63d96d5957cdd8a417721253,2025-08-21_16h45.26.362,GLINT,2024.2.4,Win32,119.9040767,,,,,,,,,,,,,,,,,,,,car,inanim_artificial,1,car,snail,bread,cat,mushroom,butterfly,apple,airplane,lawnmower,1,1,car,inanim_artificial,1,scrambled,1,11,29,14,1,1.218,,,,,,,
63d96d5957cdd8a417721253,2025-08-21_16h45.26.362,GLINT,2024.2.4,Win32,119.9040767,,,,,,,,,,,,,,,,,,,,dog,anim_natural,1,dog,bear,train,binoculars,mushroom,apple,corn,house,snail,2,0,bear,anim_natural,1,scrambled,1,12,30,4,1,3.092,,,,,,,
63d96d5957cdd8a417721253,2025-08-21_16h45.26.362,GLINT,2024.2.4,Win32,119.9040767,,,,,,,,,,,,,,,,,,,,airplane,inanim_artificial,6,binoculars,cat,house,mushroom,cow,airplane,apple,butterfly,corn,6,1,airplane,inanim_artificial,1,scrambled,1,13,31,12,1,1.891,,,,,,,
63d96d5957cdd8a417721253,2025-08-21_16h45.26.362,GLINT,2024.2.4,Win32,119.9040767,,,,,,,,,,,,,,,,,,,,lawnmower,inanim_artificial,7,dog,train,bread,cow,cat,corn,lawnmower,binoculars,avocado,,0,no response,no response,0,scrambled,1,14,32,16,1,,,,,,,,
63d96d5957cdd8a417721253,2025-08-21_16h45.26.362,GLINT,2024.2.4,Win32,119.9040767,,,,,,,,,,,,,,,,,,,,cat,anim_natural,7,car,butterfly,cow,corn,house,apple,cat,pineapple,airplane,7,1,cat,anim_natural,1,scrambled,1,15,33,2,1,2.326,,,,,,,
63d96d5957cdd8a417721253,2025-08-21_16h45.26.362,GLINT,2024.2.4,Win32,119.9040767,,,,,,,,,,,,,,,,,,,,butterfly,anim_natural,9,apple,dog,house,avocado,lawnmower,airplane,corn,cow,butterfly,9,1,butterfly,anim_natural,1,scrambled,1,16,34,1,1,2.975,,,,,,,
63d96d5957cdd8a417721253,2025-08-21_16h45.26.362,GLINT,2024.2.4,Win32,119.9040767,,,,,,,,,,,,,,,,,,,,corn,inanim_natural,4,binoculars,bread,dog,corn,car,train,apple,butterfly,cow,4,1,corn,inanim_natural,1,scrambled,1,17,35,10,1,1.965,,,,,,,
63d96d5957cdd8a417721253,2025-08-21_16h45.26.362,GLINT,2024.2.4,Win32,119.9040767,,,,,,,,,,,,,,,,,,,,corn,inanim_natural,2,bread,corn,car,apple,lawnmower,snail,house,bear,butterfly,2,1,corn,inanim_natural,1,scrambled,2,0,36,10,1,2.052,,,,,,,
63d96d5957cdd8a417721253,2025-08-21_16h45.26.362,GLINT,2024.2.4,Win32,119.9040767,,,,,,,,,,,,,,,,,,,,car,inanim_artificial,6,snail,binoculars,corn,dog,train,car,apple,bread,bear,6,1,car,inanim_artificial,1,scrambled,2,1,37,14,1,2.456,,,,,,,
63d96d5957cdd8a417721253,2025-08-21_16h45.26.362,GLINT,2024.2.4,Win32,119.9040767,,,,,,,,,,,,,,,,,,,,bear,anim_natural,2,bread,bear,apple,corn,airplane,cow,lawnmower,house,butterfly,2,1,bear,anim_natural,1,scrambled,2,2,38,0,1,1.21,,,,,,,
63d96d5957cdd8a417721253,2025-08-21_16h45.26.362,GLINT,2024.2.4,Win32,119.9040767,,,,,,,,,,,,,,,,,,,,house,inanim_artificial,3,cow,bear,house,bread,butterfly,pineapple,train,airplane,apple,3,1,house,inanim_artificial,1,scrambled,2,3,39,15,1,1.347,,,,,,,
63d96d5957cdd8a417721253,2025-08-21_16h45.26.362,GLINT,2024.2.4,Win32,119.9040767,,,,,,,,,,,,,,,,,,,,lawnmower,inanim_artificial,9,pineapple,apple,house,snail,bread,butterfly,binoculars,bear,lawnmower,9,1,lawnmower,inanim_artificial,1,scrambled,2,4,40,16,1,2.115,,,,,,,
63d96d5957cdd8a417721253,2025-08-21_16h45.26.362,GLINT,2024.2.4,Win32,119.9040767,,,,,,,,,,,,,,,,,,,,butterfly,anim_natural,1,butterfly,pineapple,binoculars,snail,train,mushroom,car,corn,bear,1,1,butterfly,anim_natural,1,scrambled,2,5,41,1,1,2.157,,,,,,,
63d96d5957cdd8a417721253,2025-08-21_16h45.26.362,GLINT,2024.2.4,Win32,119.9040767,,,,,,,,,,,,,,,,,,,,train,inanim_artificial,2,avocado,train,corn,snail,house,cat,binoculars,butterfly,apple,2,1,train,inanim_artificial,1,scrambled,2,6,42,17,1,3.344,,,,,,,
63d96d5957cdd8a417721253,2025-08-21_16h45.26.362,GLINT,2024.2.4,Win32,119.9040767,,,,,,,,,,,,,,,,,,,,binoculars,inanim_artificial,3,house,cow,binoculars,airplane,snail,apple,pineapple,dog,avocado,3,1,binoculars,inanim_artificial,1,scrambled,2,7,43,13,1,1.5,,,,,,,
63d96d5957cdd8a417721253,2025-08-21_16h45.26.362,GLINT,2024.2.4,Win32,119.9040767,,,,,,,,,,,,,,,,,,,,mushroom,inanim_natural,7,snail,train,lawnmower,butterfly,bread,cat,mushroom,car,avocado,7,1,mushroom,inanim_natural,1,scrambled,2,8,44,7,1,1.829,,,,,,,
63d96d5957cdd8a417721253,2025-08-21_16h45.26.362,GLINT,2024.2.4,Win32,119.9040767,,,,,,,,,,,,,,,,,,,,snail,anim_natural,1,snail,dog,airplane,cat,corn,mushroom,car,bread,house,1,1,snail,anim_natural,1,scrambled,2,9,45,5,1,1.439,,,,,,,
63d96d5957cdd8a417721253,2025-08-21_16h45.26.362,GLINT,2024.2.4,Win32,119.9040767,,,,,,,,,,,,,,,,,,,,pineapple,inanim_natural,6,dog,house,corn,cow,mushroom,pineapple,train,car,cat,5,0,mushroom,inanim_natural,1,scrambled,2,10,46,8,1,4.01,,,,,,,
63d96d5957cdd8a417721253,2025-08-21_16h45.26.362,GLINT,2024.2.4,Win32,119.9040767,,,,,,,,,,,,,,,,,,,,cow,anim_natural,1,cow,train,butterfly,snail,binoculars,apple,bread,car,avocado,1,1,cow,anim_natural,1,scrambled,2,11,47,3,1,1.082,,,,,,,
63d96d5957cdd8a417721253,2025-08-21_16h45.26.362,GLINT,2024.2.4,Win32,119.9040767,,,,,,,,,,,,,,,,,,,,avocado,inanim_natural,2,car,avocado,bread,apple,airplane,lawnmower,cat,cow,dog,2,1,avocado,inanim_natural,1,scrambled,2,12,48,11,1,1.007,,,,,,,
63d96d5957cdd8a417721253,2025-08-21_16h45.26.362,GLINT,2024.2.4,Win32,119.9040767,,,,,,,,,,,,,,,,,,,,dog,anim_natural,2,bear,dog,mushroom,avocado,house,corn,airplane,binoculars,cow,2,1,dog,anim_natural,1,scrambled,2,13,49,4,1,1.617,,,,,,,
63d96d5957cdd8a417721253,2025-08-21_16h45.26.362,GLINT,2024.2.4,Win32,119.9040767,,,,,,,,,,,,,,,,,,,,airplane,inanim_artificial,9,cat,house,lawnmower,pineapple,snail,dog,corn,mushroom,airplane,9,1,airplane,inanim_artificial,1,scrambled,2,14,50,12,1,3.283,,,,,,,
63d96d5957cdd8a417721253,2025-08-21_16h45.26.362,GLINT,2024.2.4,Win32,119.9040767,,,,,,,,,,,,,,,,,,,,bread,inanim_natural,1,bread,dog,house,bear,snail,mushroom,apple,lawnmower,binoculars,1,1,bread,inanim_natural,1,scrambled,2,15,51,6,1,2.252,,,,,,,
63d96d5957cdd8a417721253,2025-08-21_16h45.26.362,GLINT,2024.2.4,Win32,119.9040767,,,,,,,,,,,,,,,,,,,,cat,anim_natural,9,bread,apple,binoculars,house,corn,butterfly,bear,airplane,cat,9,1,cat,anim_natural,1,scrambled,2,16,52,2,1,2.182,,,,,,,
63d96d5957cdd8a417721253,2025-08-21_16h45.26.362,GLINT,2024.2.4,Win32,119.9040767,,,,,,,,,,,,,,,,,,,,apple,inanim_natural,7,butterfly,bear,dog,pineapple,lawnmower,car,apple,bread,binoculars,7,1,apple,inanim_natural,1,scrambled,2,17,53,9,1,2.541,,,,,,,
63d96d5957cdd8a417721253,2025-08-21_16h45.26.362,GLINT,2024.2.4,Win32,119.9040767,,,,,,,,,,,,,,,,,,,,cat,anim_natural,5,binoculars,bread,bear,apple,cat,mushroom,train,dog,car,5,1,cat,anim_natural,1,scrambled,3,0,54,2,1,1.862,,,,,,,
63d96d5957cdd8a417721253,2025-08-21_16h45.26.362,GLINT,2024.2.4,Win32,119.9040767,,,,,,,,,,,,,,,,,,,,dog,anim_natural,3,car,train,dog,airplane,avocado,cow,butterfly,apple,bread,3,1,dog,anim_natural,1,scrambled,3,1,55,4,1,4.581,,,,,,,
63d96d5957cdd8a417721253,2025-08-21_16h45.26.362,GLINT,2024.2.4,Win32,119.9040767,,,,,,,,,,,,,,,,,,,,bread,inanim_natural,3,butterfly,mushroom,bread,corn,binoculars,house,snail,cow,lawnmower,3,1,bread,inanim_natural,1,scrambled,3,2,56,6,1,3.381,,,,,,,
63d96d5957cdd8a417721253,2025-08-21_16h45.26.362,GLINT,2024.2.4,Win32,119.9040767,,,,,,,,,,,,,,,,,,,,avocado,inanim_natural,7,cow,house,train,corn,dog,car,avocado,butterfly,pineapple,7,1,avocado,inanim_natural,1,scrambled,3,3,57,11,1,1.994,,,,,,,
63d96d5957cdd8a417721253,2025-08-21_16h45.26.362,GLINT,2024.2.4,Win32,119.9040767,,,,,,,,,,,,,,,,,,,,lawnmower,inanim_artificial,3,cow,binoculars,lawnmower,avocado,bear,airplane,bread,mushroom,dog,3,1,lawnmower,inanim_artificial,1,scrambled,3,4,58,16,1,1.941,,,,,,,
63d96d5957cdd8a417721253,2025-08-21_16h45.26.362,GLINT,2024.2.4,Win32,119.9040767,,,,,,,,,,,,,,,,,,,,airplane,inanim_artificial,9,binoculars,snail,avocado,cow,bear,apple,lawnmower,corn,airplane,9,1,airplane,inanim_artificial,1,scrambled,3,5,59,12,1,2.307,,,,,,,
63d96d5957cdd8a417721253,2025-08-21_16h45.26.362,GLINT,2024.2.4,Win32,119.9040767,,,,,,,,,,,,,,,,,,,,apple,inanim_natural,8,car,corn,cat,snail,pineapple,airplane,house,apple,butterfly,8,1,apple,inanim_natural,1,scrambled,3,6,60,9,1,2.376,,,,,,,
63d96d5957cdd8a417721253,2025-08-21_16h45.26.362,GLINT,2024.2.4,Win32,119.9040767,,,,,,,,,,,,,,,,,,,,corn,inanim_natural,9,cat,bear,pineapple,apple,airplane,train,house,dog,corn,9,1,corn,inanim_natural,1,scrambled,3,7,61,10,1,2.096,,,,,,,
63d96d5957cdd8a417721253,2025-08-21_16h45.26.362,GLINT,2024.2.4,Win32,119.9040767,,,,,,,,,,,,,,,,,,,,car,inanim_artificial,1,car,cow,apple,dog,butterfly,binoculars,mushroom,lawnmower,pineapple,1,1,car,inanim_artificial,1,scrambled,3,8,62,14,1,1.375,,,,,,,
63d96d5957cdd8a417721253,2025-08-21_16h45.26.362,GLINT,2024.2.4,Win32,119.9040767,,,,,,,,,,,,,,,,,,,,train,inanim_artificial,8,lawnmower,butterfly,cow,mushroom,snail,bread,corn,train,binoculars,8,1,train,inanim_artificial,1,scrambled,3,9,63,17,1,2.271,,,,,,,
63d96d5957cdd8a417721253,2025-08-21_16h45.26.362,GLINT,2024.2.4,Win32,119.9040767,,,,,,,,,,,,,,,,,,,,cow,anim_natural,5,airplane,dog,apple,avocado,cow,binoculars,car,pineapple,bear,5,1,cow,anim_natural,1,scrambled,3,10,64,3,1,1.473,,,,,,,
63d96d5957cdd8a417721253,2025-08-21_16h45.26.362,GLINT,2024.2.4,Win32,119.9040767,,,,,,,,,,,,,,,,,,,,binoculars,inanim_artificial,5,house,cow,snail,dog,binoculars,lawnmower,avocado,corn,pineapple,5,1,binoculars,inanim_artificial,1,scrambled,3,11,65,13,1,1.832,,,,,,,
63d96d5957cdd8a417721253,2025-08-21_16h45.26.362,GLINT,2024.2.4,Win32,119.9040767,,,,,,,,,,,,,,,,,,,,house,inanim_artificial,7,car,bear,cow,pineapple,bread,snail,house,avocado,lawnmower,7,1,house,inanim_artificial,1,scrambled,3,12,66,15,1,1.623,,,,,,,
63d96d5957cdd8a417721253,2025-08-21_16h45.26.362,GLINT,2024.2.4,Win32,119.9040767,,,,,,,,,,,,,,,,,,,,pineapple,inanim_natural,4,airplane,bread,lawnmower,pineapple,snail,bear,corn,dog,house,4,1,pineapple,inanim_natural,1,scrambled,3,13,67,8,1,3.37,,,,,,,
63d96d5957cdd8a417721253,2025-08-21_16h45.26.362,GLINT,2024.2.4,Win32,119.9040767,,,,,,,,,,,,,,,,,,,,mushroom,inanim_natural,7,car,corn,bear,house,cat,binoculars,mushroom,dog,avocado,7,1,mushroom,inanim_natural,1,scrambled,3,14,68,7,1,1.911,,,,,,,
63d96d5957cdd8a417721253,2025-08-21_16h45.26.362,GLINT,2024.2.4,Win32,119.9040767,,,,,,,,,,,,,,,,,,,,snail,anim_natural,9,pineapple,avocado,house,bear,cow,mushroom,car,airplane,snail,8,0,airplane,inanim_artificial,0,scrambled,3,15,69,5,1,2.897,,,,,,,
63d96d5957cdd8a417721253,2025-08-21_16h45.26.362,GLINT,2024.2.4,Win32,119.9040767,,,,,,,,,,,,,,,,,,,,butterfly,anim_natural,2,train,butterfly,lawnmower,airplane,bread,corn,cat,snail,avocado,2,1,butterfly,anim_natural,1,scrambled,3,16,70,1,1,2.031,,,,,,,
63d96d5957cdd8a417721253,2025-08-21_16h45.26.362,GLINT,2024.2.4,Win32,119.9040767,,,,,,,,,,,,,,,,,,,,bear,anim_natural,4,house,cow,binoculars,bear,bread,avocado,snail,car,apple,4,1,bear,anim_natural,1,scrambled,3,17,71,0,1,2.455,,,,,,,
63d96d5957cdd8a417721253,2025-08-21_16h45.26.362,GLINT,2024.2.4,Win32,119.9040767,,,,,,,,,,,,,,,,,,,,,,,,,,,,,,,,,,,,,,,,,,,,,0,0,0,2,1,scrambled
63d96d5957cdd8a417721253,2025-08-21_16h45.26.362,GLINT,2024.2.4,Win32,119.9040767,,,,,,,,,,,,,,,,,,,,corn,inanim_natural,4,mushroom,car,bread,corn,house,bear,cat,train,dog,4,1,corn,inanim_natural,1,line_drawing,0,0,0,10,1,2.307,,,,,,,
63d96d5957cdd8a417721253,2025-08-21_16h45.26.362,GLINT,2024.2.4,Win32,119.9040767,,,,,,,,,,,,,,,,,,,,airplane,inanim_artificial,9,dog,house,avocado,apple,mushroom,cat,car,snail,airplane,9,1,airplane,inanim_artificial,1,line_drawing,0,1,1,12,1,2.019,,,,,,,
63d96d5957cdd8a417721253,2025-08-21_16h45.26.362,GLINT,2024.2.4,Win32,119.9040767,,,,,,,,,,,,,,,,,,,,binoculars,inanim_artificial,6,car,avocado,dog,house,mushroom,binoculars,corn,cow,bear,6,1,binoculars,inanim_artificial,1,line_drawing,0,2,2,13,1,1.828,,,,,,,
63d96d5957cdd8a417721253,2025-08-21_16h45.26.362,GLINT,2024.2.4,Win32,119.9040767,,,,,,,,,,,,,,,,,,,,pineapple,inanim_natural,9,airplane,dog,mushroom,cat,car,corn,bear,lawnmower,pineapple,9,1,pineapple,inanim_natural,1,line_drawing,0,3,3,8,1,2.096,,,,,,,
63d96d5957cdd8a417721253,2025-08-21_16h45.26.362,GLINT,2024.2.4,Win32,119.9040767,,,,,,,,,,,,,,,,,,,,bear,anim_natural,3,cat,dog,bear,corn,train,pineapple,binoculars,car,mushroom,3,1,bear,anim_natural,1,line_drawing,0,4,4,0,1,2.678,,,,,,,
63d96d5957cdd8a417721253,2025-08-21_16h45.26.362,GLINT,2024.2.4,Win32,119.9040767,,,,,,,,,,,,,,,,,,,,bread,inanim_natural,7,apple,house,airplane,butterfly,train,mushroom,bread,dog,cow,7,1,bread,inanim_natural,1,line_drawing,0,5,5,6,1,2.027,,,,,,,
63d96d5957cdd8a417721253,2025-08-21_16h45.26.362,GLINT,2024.2.4,Win32,119.9040767,,,,,,,,,,,,,,,,,,,,mushroom,inanim_natural,1,mushroom,avocado,cat,pineapple,butterfly,cow,car,train,lawnmower,1,1,mushroom,inanim_natural,1,line_drawing,0,6,6,7,1,3.358,,,,,,,
63d96d5957cdd8a417721253,2025-08-21_16h45.26.362,GLINT,2024.2.4,Win32,119.9040767,,,,,,,,,,,,,,,,,,,,house,inanim_artificial,6,mushroom,bear,cat,airplane,dog,house,lawnmower,corn,avocado,6,1,house,inanim_artificial,1,line_drawing,0,7,7,15,1,2.221,,,,,,,
63d96d5957cdd8a417721253,2025-08-21_16h45.26.362,GLINT,2024.2.4,Win32,119.9040767,,,,,,,,,,,,,,,,,,,,lawnmower,inanim_artificial,2,butterfly,lawnmower,avocado,bear,house,corn,binoculars,mushroom,cow,2,1,lawnmower,inanim_artificial,1,line_drawing,0,8,8,16,1,1.016,,,,,,,
63d96d5957cdd8a417721253,2025-08-21_16h45.26.362,GLINT,2024.2.4,Win32,119.9040767,,,,,,,,,,,,,,,,,,,,car,inanim_artificial,5,bread,cow,apple,airplane,car,cat,lawnmower,corn,snail,5,1,car,inanim_artificial,1,line_drawing,0,9,9,14,1,1.828,,,,,,,
63d96d5957cdd8a417721253,2025-08-21_16h45.26.362,GLINT,2024.2.4,Win32,119.9040767,,,,,,,,,,,,,,,,,,,,snail,anim_natural,8,binoculars,airplane,cat,pineapple,corn,butterfly,apple,snail,car,8,1,snail,anim_natural,1,line_drawing,0,10,10,5,1,2.017,,,,,,,
63d96d5957cdd8a417721253,2025-08-21_16h45.26.362,GLINT,2024.2.4,Win32,119.9040767,,,,,,,,,,,,,,,,,,,,cat,anim_natural,2,lawnmower,cat,avocado,corn,binoculars,airplane,snail,mushroom,bear,2,1,cat,anim_natural,1,line_drawing,0,11,11,2,1,1.127,,,,,,,
63d96d5957cdd8a417721253,2025-08-21_16h45.26.362,GLINT,2024.2.4,Win32,119.9040767,,,,,,,,,,,,,,,,,,,,avocado,inanim_natural,5,bread,corn,binoculars,train,avocado,snail,lawnmower,cow,bear,5,1,avocado,inanim_natural,1,line_drawing,0,12,12,11,1,1.938,,,,,,,
63d96d5957cdd8a417721253,2025-08-21_16h45.26.362,GLINT,2024.2.4,Win32,119.9040767,,,,,,,,,,,,,,,,,,,,cow,anim_natural,2,pineapple,cow,train,avocado,butterfly,mushroom,car,dog,airplane,2,1,cow,anim_natural,1,line_drawing,0,13,13,3,1,0.957,,,,,,,
63d96d5957cdd8a417721253,2025-08-21_16h45.26.362,GLINT,2024.2.4,Win32,119.9040767,,,,,,,,,,,,,,,,,,,,dog,anim_natural,9,airplane,bread,car,apple,cat,snail,lawnmower,mushroom,dog,9,1,dog,anim_natural,1,line_drawing,0,14,14,4,1,2.153,,,,,,,
63d96d5957cdd8a417721253,2025-08-21_16h45.26.362,GLINT,2024.2.4,Win32,119.9040767,,,,,,,,,,,,,,,,,,,,apple,inanim_natural,8,dog,bear,train,avocado,house,pineapple,car,apple,snail,9,0,snail,anim_natural,0,line_drawing,0,15,15,9,1,2.39,,,,,,,
63d96d5957cdd8a417721253,2025-08-21_16h45.26.362,GLINT,2024.2.4,Win32,119.9040767,,,,,,,,,,,,,,,,,,,,butterfly,anim_natural,6,lawnmower,binoculars,mushroom,apple,avocado,butterfly,airplane,dog,snail,6,1,butterfly,anim_natural,1,line_drawing,0,16,16,1,1,1.973,,,,,,,
63d96d5957cdd8a417721253,2025-08-21_16h45.26.362,GLINT,2024.2.4,Win32,119.9040767,,,,,,,,,,,,,,,,,,,,train,inanim_artificial,4,apple,bread,car,train,cow,pineapple,bear,butterfly,airplane,9,0,airplane,inanim_artificial,1,line_drawing,0,17,17,17,1,2.359,,,,,,,
63d96d5957cdd8a417721253,2025-08-21_16h45.26.362,GLINT,2024.2.4,Win32,119.9040767,,,,,,,,,,,,,,,,,,,,house,inanim_artificial,1,house,mushroom,butterfly,corn,lawnmower,pineapple,snail,binoculars,dog,1,1,house,inanim_artificial,1,line_drawing,1,0,18,15,1,1.269,,,,,,,
63d96d5957cdd8a417721253,2025-08-21_16h45.26.362,GLINT,2024.2.4,Win32,119.9040767,,,,,,,,,,,,,,,,,,,,snail,anim_natural,1,snail,bear,airplane,bread,binoculars,house,cat,apple,mushroom,1,1,snail,anim_natural,1,line_drawing,1,1,19,5,1,3.538,,,,,,,
63d96d5957cdd8a417721253,2025-08-21_16h45.26.362,GLINT,2024.2.4,Win32,119.9040767,,,,,,,,,,,,,,,,,,,,corn,inanim_natural,9,bear,dog,binoculars,house,train,avocado,cow,mushroom,corn,9,1,corn,inanim_natural,1,line_drawing,1,2,20,10,1,1.402,,,,,,,
63d96d5957cdd8a417721253,2025-08-21_16h45.26.362,GLINT,2024.2.4,Win32,119.9040767,,,,,,,,,,,,,,,,,,,,train,inanim_artificial,8,apple,car,corn,cow,dog,butterfly,airplane,train,avocado,7,0,airplane,inanim_artificial,1,line_drawing,1,3,21,17,1,2.354,,,,,,,
63d96d5957cdd8a417721253,2025-08-21_16h45.26.362,GLINT,2024.2.4,Win32,119.9040767,,,,,,,,,,,,,,,,,,,,lawnmower,inanim_artificial,5,dog,corn,airplane,car,lawnmower,mushroom,butterfly,cat,pineapple,5,1,lawnmower,inanim_artificial,1,line_drawing,1,4,22,16,1,1.527,,,,,,,
63d96d5957cdd8a417721253,2025-08-21_16h45.26.362,GLINT,2024.2.4,Win32,119.9040767,,,,,,,,,,,,,,,,,,,,cow,anim_natural,5,airplane,mushroom,house,snail,cow,binoculars,dog,apple,corn,5,1,cow,anim_natural,1,line_drawing,1,5,23,3,1,2.279,,,,,,,
63d96d5957cdd8a417721253,2025-08-21_16h45.26.362,GLINT,2024.2.4,Win32,119.9040767,,,,,,,,,,,,,,,,,,,,avocado,inanim_natural,8,train,pineapple,snail,dog,car,bear,corn,avocado,house,8,1,avocado,inanim_natural,1,line_drawing,1,6,24,11,1,2.125,,,,,,,
63d96d5957cdd8a417721253,2025-08-21_16h45.26.362,GLINT,2024.2.4,Win32,119.9040767,,,,,,,,,,,,,,,,,,,,cat,anim_natural,3,house,mushroom,cat,avocado,corn,car,butterfly,dog,binoculars,3,1,cat,anim_natural,1,line_drawing,1,7,25,2,1,1.67,,,,,,,
63d96d5957cdd8a417721253,2025-08-21_16h45.26.362,GLINT,2024.2.4,Win32,119.9040767,,,,,,,,,,,,,,,,,,,,apple,inanim_natural,8,train,airplane,butterfly,mushroom,cow,bear,binoculars,apple,corn,8,1,apple,inanim_natural,1,line_drawing,1,8,26,9,1,2.82,,,,,,,
63d96d5957cdd8a417721253,2025-08-21_16h45.26.362,GLINT,2024.2.4,Win32,119.9040767,,,,,,,,,,,,,,,,,,,,bread,inanim_natural,7,avocado,house,butterfly,cow,mushroom,binoculars,bread,train,dog,7,1,bread,inanim_natural,1,line_drawing,1,9,27,6,1,3.687,,,,,,,
63d96d5957cdd8a417721253,2025-08-21_16h45.26.362,GLINT,2024.2.4,Win32,119.9040767,,,,,,,,,,,,,,,,,,,,butterfly,anim_natural,2,lawnmower,butterfly,snail,dog,airplane,binoculars,avocado,pineapple,bread,2,1,butterfly,anim_natural,1,line_drawing,1,10,28,1,1,2.677,,,,,,,
63d96d5957cdd8a417721253,2025-08-21_16h45.26.362,GLINT,2024.2.4,Win32,119.9040767,,,,,,,,,,,,,,,,,,,,pineapple,inanim_natural,8,mushroom,snail,bread,cow,lawnmower,binoculars,train,pineapple,butterfly,8,1,pineapple,inanim_natural,1,line_drawing,1,11,29,8,1,1.677,,,,,,,
63d96d5957cdd8a417721253,2025-08-21_16h45.26.362,GLINT,2024.2.4,Win32,119.9040767,,,,,,,,,,,,,,,,,,,,airplane,inanim_artificial,9,car,apple,dog,mushroom,cat,binoculars,corn,butterfly,airplane,9,1,airplane,inanim_artificial,1,line_drawing,1,12,30,12,1,2.236,,,,,,,
63d96d5957cdd8a417721253,2025-08-21_16h45.26.362,GLINT,2024.2.4,Win32,119.9040767,,,,,,,,,,,,,,,,,,,,dog,anim_natural,1,dog,airplane,bread,car,snail,train,mushroom,butterfly,corn,1,1,dog,anim_natural,1,line_drawing,1,13,31,4,1,0.971,,,,,,,
63d96d5957cdd8a417721253,2025-08-21_16h45.26.362,GLINT,2024.2.4,Win32,119.9040767,,,,,,,,,,,,,,,,,,,,bear,anim_natural,3,car,binoculars,bear,avocado,lawnmower,dog,corn,pineapple,butterfly,3,1,bear,anim_natural,1,line_drawing,1,14,32,0,1,1.633,,,,,,,
63d96d5957cdd8a417721253,2025-08-21_16h45.26.362,GLINT,2024.2.4,Win32,119.9040767,,,,,,,,,,,,,,,,,,,,binoculars,inanim_artificial,5,avocado,bear,apple,cat,binoculars,butterfly,train,mushroom,airplane,5,1,binoculars,inanim_artificial,1,line_drawing,1,15,33,13,1,3.885,,,,,,,
63d96d5957cdd8a417721253,2025-08-21_16h45.26.362,GLINT,2024.2.4,Win32,119.9040767,,,,,,,,,,,,,,,,,,,,mushroom,inanim_natural,9,apple,cow,car,butterfly,train,bread,snail,airplane,mushroom,9,1,mushroom,inanim_natural,1,line_drawing,1,16,34,7,1,1.687,,,,,,,
63d96d5957cdd8a417721253,2025-08-21_16h45.26.362,GLINT,2024.2.4,Win32,119.9040767,,,,,,,,,,,,,,,,,,,,car,inanim_artificial,3,house,mushroom,car,butterfly,bear,avocado,apple,airplane,cow,3,1,car,inanim_artificial,1,line_drawing,1,17,35,14,1,1.491,,,,,,,
63d96d5957cdd8a417721253,2025-08-21_16h45.26.362,GLINT,2024.2.4,Win32,119.9040767,,,,,,,,,,,,,,,,,,,,cow,anim_natural,7,lawnmower,bread,bear,house,apple,cat,cow,train,pineapple,7,1,cow,anim_natural,1,line_drawing,2,0,36,3,1,1.985,,,,,,,
63d96d5957cdd8a417721253,2025-08-21_16h45.26.362,GLINT,2024.2.4,Win32,119.9040767,,,,,,,,,,,,,,,,,,,,apple,inanim_natural,1,apple,bread,snail,house,dog,cat,corn,train,airplane,1,1,apple,inanim_natural,1,line_drawing,2,1,37,9,1,2.288,,,,,,,
63d96d5957cdd8a417721253,2025-08-21_16h45.26.362,GLINT,2024.2.4,Win32,119.9040767,,,,,,,,,,,,,,,,,,,,snail,anim_natural,6,cow,corn,train,lawnmower,dog,snail,house,apple,bread,6,1,snail,anim_natural,1,line_drawing,2,2,38,5,1,2.316,,,,,,,
63d96d5957cdd8a417721253,2025-08-21_16h45.26.362,GLINT,2024.2.4,Win32,119.9040767,,,,,,,,,,,,,,,,,,,,binoculars,inanim_artificial,7,bread,train,avocado,pineapple,dog,cow,binoculars,bear,car,7,1,binoculars,inanim_artificial,1,line_drawing,2,3,39,13,1,1.976,,,,,,,
63d96d5957cdd8a417721253,2025-08-21_16h45.26.362,GLINT,2024.2.4,Win32,119.9040767,,,,,,,,,,,,,,,,,,,,bear,anim_natural,8,corn,binoculars,snail,lawnmower,airplane,avocado,cat,bear,pineapple,8,1,bear,anim_natural,1,line_drawing,2,4,40,0,1,2.461,,,,,,,
63d96d5957cdd8a417721253,2025-08-21_16h45.26.362,GLINT,2024.2.4,Win32,119.9040767,,,,,,,,,,,,,,,,,,,,car,inanim_artificial,9,airplane,dog,bread,mushroom,cat,avocado,butterfly,binoculars,car,9,1,car,inanim_artificial,1,line_drawing,2,5,41,14,1,2.903,,,,,,,
63d96d5957cdd8a417721253,2025-08-21_16h45.26.362,GLINT,2024.2.4,Win32,119.9040767,,,,,,,,,,,,,,,,,,,,cat,anim_natural,3,lawnmower,corn,cat,train,pineapple,dog,bread,snail,car,3,1,cat,anim_natural,1,line_drawing,2,6,42,2,1,1.541,,,,,,,
63d96d5957cdd8a417721253,2025-08-21_16h45.26.362,GLINT,2024.2.4,Win32,119.9040767,,,,,,,,,,,,,,,,,,,,avocado,inanim_natural,6,bread,car,cow,house,cat,avocado,snail,binoculars,apple,6,1,avocado,inanim_natural,1,line_drawing,2,7,43,11,1,2.387,,,,,,,
63d96d5957cdd8a417721253,2025-08-21_16h45.26.362,GLINT,2024.2.4,Win32,119.9040767,,,,,,,,,,,,,,,,,,,,corn,inanim_natural,1,corn,house,binoculars,apple,bear,cow,train,cat,pineapple,1,1,corn,inanim_natural,1,line_drawing,2,8,44,10,1,1.897,,,,,,,
63d96d5957cdd8a417721253,2025-08-21_16h45.26.362,GLINT,2024.2.4,Win32,119.9040767,,,,,,,,,,,,,,,,,,,,train,inanim_artificial,7,bread,bear,binoculars,house,corn,apple,train,cat,snail,7,1,train,inanim_artificial,1,line_drawing,2,9,45,17,1,1.75,,,,,,,
63d96d5957cdd8a417721253,2025-08-21_16h45.26.362,GLINT,2024.2.4,Win32,119.9040767,,,,,,,,,,,,,,,,,,,,butterfly,anim_natural,9,house,lawnmower,dog,pineapple,binoculars,apple,avocado,snail,butterfly,9,1,butterfly,anim_natural,1,line_drawing,2,10,46,1,1,1.914,,,,,,,
63d96d5957cdd8a417721253,2025-08-21_16h45.26.362,GLINT,2024.2.4,Win32,119.9040767,,,,,,,,,,,,,,,,,,,,bread,inanim_natural,1,bread,binoculars,train,cat,car,dog,avocado,butterfly,apple,1,1,bread,inanim_natural,1,line_drawing,2,11,47,6,1,2.237,,,,,,,
63d96d5957cdd8a417721253,2025-08-21_16h45.26.362,GLINT,2024.2.4,Win32,119.9040767,,,,,,,,,,,,,,,,,,,,mushroom,inanim_natural,1,mushroom,apple,bear,car,dog,train,binoculars,bread,cow,1,1,mushroom,inanim_natural,1,line_drawing,2,12,48,7,1,2.222,,,,,,,
63d96d5957cdd8a417721253,2025-08-21_16h45.26.362,GLINT,2024.2.4,Win32,119.9040767,,,,,,,,,,,,,,,,,,,,dog,anim_natural,6,snail,corn,binoculars,butterfly,bread,dog,lawnmower,car,mushroom,6,1,dog,anim_natural,1,line_drawing,2,13,49,4,1,3.016,,,,,,,
63d96d5957cdd8a417721253,2025-08-21_16h45.26.362,GLINT,2024.2.4,Win32,119.9040767,,,,,,,,,,,,,,,,,,,,lawnmower,inanim_artificial,1,lawnmower,butterfly,bear,cat,airplane,avocado,binoculars,mushroom,apple,1,1,lawnmower,inanim_artificial,1,line_drawing,2,14,50,16,1,1.218,,,,,,,
63d96d5957cdd8a417721253,2025-08-21_16h45.26.362,GLINT,2024.2.4,Win32,119.9040767,,,,,,,,,,,,,,,,,,,,pineapple,inanim_natural,5,corn,cow,cat,train,pineapple,apple,dog,binoculars,car,5,1,pineapple,inanim_natural,1,line_drawing,2,15,51,8,1,1.269,,,,,,,
63d96d5957cdd8a417721253,2025-08-21_16h45.26.362,GLINT,2024.2.4,Win32,119.9040767,,,,,,,,,,,,,,,,,,,,house,inanim_artificial,5,airplane,butterfly,pineapple,avocado,house,apple,binoculars,bear,dog,5,1,house,inanim_artificial,1,line_drawing,2,16,52,15,1,1.112,,,,,,,
63d96d5957cdd8a417721253,2025-08-21_16h45.26.362,GLINT,2024.2.4,Win32,119.9040767,,,,,,,,,,,,,,,,,,,,airplane,inanim_artificial,1,airplane,car,train,cat,avocado,mushroom,snail,dog,apple,1,1,airplane,inanim_artificial,1,line_drawing,2,17,53,12,1,1.708,,,,,,,
63d96d5957cdd8a417721253,2025-08-21_16h45.26.362,GLINT,2024.2.4,Win32,119.9040767,,,,,,,,,,,,,,,,,,,,lawnmower,inanim_artificial,5,car,bear,avocado,cow,lawnmower,mushroom,cat,airplane,pineapple,5,1,lawnmower,inanim_artificial,1,line_drawing,3,0,54,16,1,1.349,,,,,,,
63d96d5957cdd8a417721253,2025-08-21_16h45.26.362,GLINT,2024.2.4,Win32,119.9040767,,,,,,,,,,,,,,,,,,,,avocado,inanim_natural,7,mushroom,snail,bear,binoculars,pineapple,house,avocado,car,butterfly,7,1,avocado,inanim_natural,1,line_drawing,3,1,55,11,1,1.95,,,,,,,
63d96d5957cdd8a417721253,2025-08-21_16h45.26.362,GLINT,2024.2.4,Win32,119.9040767,,,,,,,,,,,,,,,,,,,,bear,anim_natural,6,snail,pineapple,house,apple,binoculars,bear,bread,airplane,butterfly,6,1,bear,anim_natural,1,line_drawing,3,2,56,0,1,2.068,,,,,,,
63d96d5957cdd8a417721253,2025-08-21_16h45.26.362,GLINT,2024.2.4,Win32,119.9040767,,,,,,,,,,,,,,,,,,,,house,inanim_artificial,1,house,corn,bear,snail,lawnmower,mushroom,cow,pineapple,train,1,1,house,inanim_artificial,1,line_drawing,3,3,57,15,1,1.307,,,,,,,
63d96d5957cdd8a417721253,2025-08-21_16h45.26.362,GLINT,2024.2.4,Win32,119.9040767,,,,,,,,,,,,,,,,,,,,train,inanim_artificial,2,bear,train,mushroom,avocado,pineapple,lawnmower,cow,dog,airplane,2,1,train,inanim_artificial,1,line_drawing,3,4,58,17,1,2.736,,,,,,,
63d96d5957cdd8a417721253,2025-08-21_16h45.26.362,GLINT,2024.2.4,Win32,119.9040767,,,,,,,,,,,,,,,,,,,,bread,inanim_natural,3,cow,bear,bread,binoculars,corn,pineapple,butterfly,car,house,3,1,bread,inanim_natural,1,line_drawing,3,5,59,6,1,1.631,,,,,,,
63d96d5957cdd8a417721253,2025-08-21_16h45.26.362,GLINT,2024.2.4,Win32,119.9040767,,,,,,,,,,,,,,,,,,,,cat,anim_natural,4,bread,house,snail,cat,bear,avocado,binoculars,airplane,apple,4,1,cat,anim_natural,1,line_drawing,3,6,60,2,1,1.392,,,,,,,
63d96d5957cdd8a417721253,2025-08-21_16h45.26.362,GLINT,2024.2.4,Win32,119.9040767,,,,,,,,,,,,,,,,,,,,airplane,inanim_artificial,6,butterfly,pineapple,house,car,cow,airplane,apple,snail,bread,6,1,airplane,inanim_artificial,1,line_drawing,3,7,61,12,1,2.709,,,,,,,
63d96d5957cdd8a417721253,2025-08-21_16h45.26.362,GLINT,2024.2.4,Win32,119.9040767,,,,,,,,,,,,,,,,,,,,butterfly,anim_natural,6,corn,train,snail,airplane,avocado,butterfly,apple,lawnmower,bear,6,1,butterfly,anim_natural,1,line_drawing,3,8,62,1,1,1.563,,,,,,,
63d96d5957cdd8a417721253,2025-08-21_16h45.26.362,GLINT,2024.2.4,Win32,119.9040767,,,,,,,,,,,,,,,,,,,,apple,inanim_natural,5,butterfly,avocado,cow,car,apple,train,bear,pineapple,binoculars,5,1,apple,inanim_natural,1,line_drawing,3,9,63,9,1,1.626,,,,,,,
63d96d5957cdd8a417721253,2025-08-21_16h45.26.362,GLINT,2024.2.4,Win32,119.9040767,,,,,,,,,,,,,,,,,,,,mushroom,inanim_natural,3,cat,butterfly,mushroom,binoculars,airplane,pineapple,snail,house,apple,3,1,mushroom,inanim_natural,1,line_drawing,3,10,64,7,1,1.34,,,,,,,
63d96d5957cdd8a417721253,2025-08-21_16h45.26.362,GLINT,2024.2.4,Win32,119.9040767,,,,,,,,,,,,,,,,,,,,dog,anim_natural,4,lawnmower,bear,pineapple,dog,cat,house,apple,bread,car,4,1,dog,anim_natural,1,line_drawing,3,11,65,4,1,1.343,,,,,,,
63d96d5957cdd8a417721253,2025-08-21_16h45.26.362,GLINT,2024.2.4,Win32,119.9040767,,,,,,,,,,,,,,,,,,,,corn,inanim_natural,2,car,corn,pineapple,bear,lawnmower,bread,snail,train,butterfly,2,1,corn,inanim_natural,1,line_drawing,3,12,66,10,1,1.176,,,,,,,
63d96d5957cdd8a417721253,2025-08-21_16h45.26.362,GLINT,2024.2.4,Win32,119.9040767,,,,,,,,,,,,,,,,,,,,cow,anim_natural,8,airplane,corn,avocado,butterfly,house,mushroom,binoculars,cow,cat,8,1,cow,anim_natural,1,line_drawing,3,13,67,3,1,1.366,,,,,,,
63d96d5957cdd8a417721253,2025-08-21_16h45.26.362,GLINT,2024.2.4,Win32,119.9040767,,,,,,,,,,,,,,,,,,,,binoculars,inanim_artificial,5,corn,avocado,bread,butterfly,binoculars,bear,lawnmower,airplane,dog,5,1,binoculars,inanim_artificial,1,line_drawing,3,14,68,13,1,0.89,,,,,,,
63d96d5957cdd8a417721253,2025-08-21_16h45.26.362,GLINT,2024.2.4,Win32,119.9040767,,,,,,,,,,,,,,,,,,,,car,inanim_artificial,1,car,mushroom,butterfly,binoculars,lawnmower,bread,dog,corn,cat,1,1,car,inanim_artificial,1,line_drawing,3,15,69,14,1,0.703,,,,,,,
63d96d5957cdd8a417721253,2025-08-21_16h45.26.362,GLINT,2024.2.4,Win32,119.9040767,,,,,,,,,,,,,,,,,,,,snail,anim_natural,5,house,bear,train,binoculars,snail,cow,corn,apple,avocado,5,1,snail,anim_natural,1,line_drawing,3,16,70,5,1,0.798,,,,,,,
63d96d5957cdd8a417721253,2025-08-21_16h45.26.362,GLINT,2024.2.4,Win32,119.9040767,,,,,,,,,,,,,,,,,,,,pineapple,inanim_natural,1,pineapple,bear,cat,corn,lawnmower,avocado,car,airplane,cow,1,1,pineapple,inanim_natural,1,line_drawing,3,17,71,8,1,2.085,,,,,,,
63d96d5957cdd8a417721253,2025-08-21_16h45.26.362,GLINT,2024.2.4,Win32,119.9040767,,,,,,,,,,,,,,,,,,,,,,,,,,,,,,,,,,,,,,,,,,,,,0,1,1,1,1,line_drawing
63d96d5957cdd8a417721253,2025-08-21_16h45.26.362,GLINT,2024.2.4,Win32,119.9040767,,,,,,,,,,,,,,,,,,,,cow,anim_natural,6,pineapple,bear,corn,lawnmower,train,cow,airplane,apple,snail,6,1,cow,anim_natural,1,natural,0,0,0,3,1,1.143,,,,,,,
63d96d5957cdd8a417721253,2025-08-21_16h45.26.362,GLINT,2024.2.4,Win32,119.9040767,,,,,,,,,,,,,,,,,,,,apple,inanim_natural,5,dog,corn,car,avocado,apple,lawnmower,house,cat,cow,5,1,apple,inanim_natural,1,natural,0,1,1,9,1,2.24,,,,,,,
63d96d5957cdd8a417721253,2025-08-21_16h45.26.362,GLINT,2024.2.4,Win32,119.9040767,,,,,,,,,,,,,,,,,,,,train,inanim_artificial,7,bread,avocado,car,airplane,apple,cat,train,dog,butterfly,7,1,train,inanim_artificial,1,natural,0,2,2,17,1,1.629,,,,,,,
63d96d5957cdd8a417721253,2025-08-21_16h45.26.362,GLINT,2024.2.4,Win32,119.9040767,,,,,,,,,,,,,,,,,,,,snail,anim_natural,3,avocado,binoculars,snail,airplane,pineapple,apple,lawnmower,butterfly,bear,3,1,snail,anim_natural,1,natural,0,3,3,5,1,1.921,,,,,,,
63d96d5957cdd8a417721253,2025-08-21_16h45.26.362,GLINT,2024.2.4,Win32,119.9040767,,,,,,,,,,,,,,,,,,,,lawnmower,inanim_artificial,6,binoculars,cat,pineapple,snail,apple,lawnmower,airplane,cow,bread,6,1,lawnmower,inanim_artificial,1,natural,0,4,4,16,1,1.337,,,,,,,
63d96d5957cdd8a417721253,2025-08-21_16h45.26.362,GLINT,2024.2.4,Win32,119.9040767,,,,,,,,,,,,,,,,,,,,mushroom,inanim_natural,9,binoculars,airplane,car,cat,apple,dog,pineapple,cow,mushroom,9,1,mushroom,inanim_natural,1,natural,0,5,5,7,1,1.555,,,,,,,
63d96d5957cdd8a417721253,2025-08-21_16h45.26.362,GLINT,2024.2.4,Win32,119.9040767,,,,,,,,,,,,,,,,,,,,bear,anim_natural,4,lawnmower,snail,car,bear,mushroom,cow,airplane,apple,corn,4,1,bear,anim_natural,1,natural,0,6,6,0,1,1.299,,,,,,,
63d96d5957cdd8a417721253,2025-08-21_16h45.26.362,GLINT,2024.2.4,Win32,119.9040767,,,,,,,,,,,,,,,,,,,,cat,anim_natural,3,bread,bear,cat,apple,car,house,avocado,binoculars,snail,3,1,cat,anim_natural,1,natural,0,7,7,2,1,1.948,,,,,,,
63d96d5957cdd8a417721253,2025-08-21_16h45.26.362,GLINT,2024.2.4,Win32,119.9040767,,,,,,,,,,,,,,,,,,,,butterfly,anim_natural,2,train,butterfly,snail,car,bread,pineapple,corn,dog,binoculars,2,1,butterfly,anim_natural,1,natural,0,8,8,1,1,2.727,,,,,,,
63d96d5957cdd8a417721253,2025-08-21_16h45.26.362,GLINT,2024.2.4,Win32,119.9040767,,,,,,,,,,,,,,,,,,,,corn,inanim_natural,2,airplane,corn,bear,cat,bread,dog,pineapple,binoculars,car,2,1,corn,inanim_natural,1,natural,0,9,9,10,1,0.947,,,,,,,
63d96d5957cdd8a417721253,2025-08-21_16h45.26.362,GLINT,2024.2.4,Win32,119.9040767,,,,,,,,,,,,,,,,,,,,airplane,inanim_artificial,7,cow,bear,car,bread,apple,dog,airplane,pineapple,house,7,1,airplane,inanim_artificial,1,natural,0,10,10,12,1,3.042,,,,,,,
63d96d5957cdd8a417721253,2025-08-21_16h45.26.362,GLINT,2024.2.4,Win32,119.9040767,,,,,,,,,,,,,,,,,,,,bread,inanim_natural,5,dog,butterfly,avocado,binoculars,bread,bear,apple,lawnmower,airplane,5,1,bread,inanim_natural,1,natural,0,11,11,6,1,0.903,,,,,,,
63d96d5957cdd8a417721253,2025-08-21_16h45.26.362,GLINT,2024.2.4,Win32,119.9040767,,,,,,,,,,,,,,,,,,,,car,inanim_artificial,1,car,snail,house,apple,binoculars,bread,mushroom,dog,cow,1,1,car,inanim_artificial,1,natural,0,12,12,14,1,2.584,,,,,,,
63d96d5957cdd8a417721253,2025-08-21_16h45.26.362,GLINT,2024.2.4,Win32,119.9040767,,,,,,,,,,,,,,,,,,,,avocado,inanim_natural,9,lawnmower,butterfly,train,bear,airplane,corn,dog,pineapple,avocado,9,1,avocado,inanim_natural,1,natural,0,13,13,11,1,2.11,,,,,,,
63d96d5957cdd8a417721253,2025-08-21_16h45.26.362,GLINT,2024.2.4,Win32,119.9040767,,,,,,,,,,,,,,,,,,,,pineapple,inanim_natural,7,apple,airplane,house,lawnmower,cat,butterfly,pineapple,mushroom,cow,7,1,pineapple,inanim_natural,1,natural,0,14,14,8,1,2.184,,,,,,,
63d96d5957cdd8a417721253,2025-08-21_16h45.26.362,GLINT,2024.2.4,Win32,119.9040767,,,,,,,,,,,,,,,,,,,,dog,anim_natural,9,apple,lawnmower,mushroom,snail,binoculars,car,corn,cat,dog,9,1,dog,anim_natural,1,natural,0,15,15,4,1,1.943,,,,,,,
63d96d5957cdd8a417721253,2025-08-21_16h45.26.362,GLINT,2024.2.4,Win32,119.9040767,,,,,,,,,,,,,,,,,,,,house,inanim_artificial,8,corn,car,mushroom,bear,snail,lawnmower,dog,house,pineapple,8,1,house,inanim_artificial,1,natural,0,16,16,15,1,1.933,,,,,,,
63d96d5957cdd8a417721253,2025-08-21_16h45.26.362,GLINT,2024.2.4,Win32,119.9040767,,,,,,,,,,,,,,,,,,,,binoculars,inanim_artificial,5,car,avocado,bread,cow,binoculars,snail,dog,mushroom,lawnmower,5,1,binoculars,inanim_artificial,1,natural,0,17,17,13,1,0.898,,,,,,,
63d96d5957cdd8a417721253,2025-08-21_16h45.26.362,GLINT,2024.2.4,Win32,119.9040767,,,,,,,,,,,,,,,,,,,,bear,anim_natural,3,mushroom,pineapple,bear,cat,lawnmower,binoculars,butterfly,apple,house,3,1,bear,anim_natural,1,natural,1,0,18,0,1,1.027,,,,,,,
63d96d5957cdd8a417721253,2025-08-21_16h45.26.362,GLINT,2024.2.4,Win32,119.9040767,,,,,,,,,,,,,,,,,,,,avocado,inanim_natural,7,binoculars,airplane,cow,snail,train,butterfly,avocado,mushroom,bread,7,1,avocado,inanim_natural,1,natural,1,1,19,11,1,1.961,,,,,,,
63d96d5957cdd8a417721253,2025-08-21_16h45.26.362,GLINT,2024.2.4,Win32,119.9040767,,,,,,,,,,,,,,,,,,,,mushroom,inanim_natural,7,cat,corn,airplane,snail,car,binoculars,mushroom,dog,avocado,7,1,mushroom,inanim_natural,1,natural,1,2,20,7,1,1.846,,,,,,,
63d96d5957cdd8a417721253,2025-08-21_16h45.26.362,GLINT,2024.2.4,Win32,119.9040767,,,,,,,,,,,,,,,,,,,,dog,anim_natural,2,car,dog,bear,cow,bread,house,apple,lawnmower,corn,2,1,dog,anim_natural,1,natural,1,3,21,4,1,1.034,,,,,,,
63d96d5957cdd8a417721253,2025-08-21_16h45.26.362,GLINT,2024.2.4,Win32,119.9040767,,,,,,,,,,,,,,,,,,,,pineapple,inanim_natural,7,bread,mushroom,bear,cat,house,airplane,pineapple,dog,binoculars,7,1,pineapple,inanim_natural,1,natural,1,4,22,8,1,1.049,,,,,,,
63d96d5957cdd8a417721253,2025-08-21_16h45.26.362,GLINT,2024.2.4,Win32,119.9040767,,,,,,,,,,,,,,,,,,,,lawnmower,inanim_artificial,2,avocado,lawnmower,butterfly,train,bear,corn,cat,bread,airplane,2,1,lawnmower,inanim_artificial,1,natural,1,5,23,16,1,1.039,,,,,,,
63d96d5957cdd8a417721253,2025-08-21_16h45.26.362,GLINT,2024.2.4,Win32,119.9040767,,,,,,,,,,,,,,,,,,,,car,inanim_artificial,9,pineapple,house,cat,dog,mushroom,avocado,train,bear,car,9,1,car,inanim_artificial,1,natural,1,6,24,14,1,1.378,,,,,,,
63d96d5957cdd8a417721253,2025-08-21_16h45.26.362,GLINT,2024.2.4,Win32,119.9040767,,,,,,,,,,,,,,,,,,,,house,inanim_artificial,1,house,mushroom,avocado,apple,dog,cat,car,bear,binoculars,1,1,house,inanim_artificial,1,natural,1,7,25,15,1,2.486,,,,,,,
63d96d5957cdd8a417721253,2025-08-21_16h45.26.362,GLINT,2024.2.4,Win32,119.9040767,,,,,,,,,,,,,,,,,,,,bread,inanim_natural,3,binoculars,butterfly,bread,mushroom,train,lawnmower,apple,dog,cat,3,1,bread,inanim_natural,1,natural,1,8,26,6,1,1.383,,,,,,,
63d96d5957cdd8a417721253,2025-08-21_16h45.26.362,GLINT,2024.2.4,Win32,119.9040767,,,,,,,,,,,,,,,,,,,,butterfly,anim_natural,3,car,snail,butterfly,dog,mushroom,lawnmower,airplane,pineapple,avocado,3,1,butterfly,anim_natural,1,natural,1,9,27,1,1,1.493,,,,,,,
63d96d5957cdd8a417721253,2025-08-21_16h45.26.362,GLINT,2024.2.4,Win32,119.9040767,,,,,,,,,,,,,,,,,,,,cat,anim_natural,8,cow,airplane,bear,binoculars,lawnmower,pineapple,mushroom,cat,apple,8,1,cat,anim_natural,1,natural,1,10,28,2,1,1.658,,,,,,,
63d96d5957cdd8a417721253,2025-08-21_16h45.26.362,GLINT,2024.2.4,Win32,119.9040767,,,,,,,,,,,,,,,,,,,,train,inanim_artificial,7,house,apple,binoculars,cow,butterfly,snail,train,corn,pineapple,7,1,train,inanim_artificial,1,natural,1,11,29,17,1,1.877,,,,,,,
63d96d5957cdd8a417721253,2025-08-21_16h45.26.362,GLINT,2024.2.4,Win32,119.9040767,,,,,,,,,,,,,,,,,,,,snail,anim_natural,3,lawnmower,pineapple,snail,dog,car,mushroom,butterfly,bread,binoculars,3,1,snail,anim_natural,1,natural,1,12,30,5,1,1.244,,,,,,,
63d96d5957cdd8a417721253,2025-08-21_16h45.26.362,GLINT,2024.2.4,Win32,119.9040767,,,,,,,,,,,,,,,,,,,,airplane,inanim_artificial,6,lawnmower,corn,cat,bear,butterfly,airplane,car,avocado,pineapple,6,1,airplane,inanim_artificial,1,natural,1,13,31,12,1,2.158,,,,,,,
63d96d5957cdd8a417721253,2025-08-21_16h45.26.362,GLINT,2024.2.4,Win32,119.9040767,,,,,,,,,,,,,,,,,,,,corn,inanim_natural,9,bread,binoculars,mushroom,dog,lawnmower,snail,cat,car,corn,9,1,corn,inanim_natural,1,natural,1,14,32,10,1,2.412,,,,,,,
63d96d5957cdd8a417721253,2025-08-21_16h45.26.362,GLINT,2024.2.4,Win32,119.9040767,,,,,,,,,,,,,,,,,,,,cow,anim_natural,4,cat,house,lawnmower,cow,avocado,bear,pineapple,mushroom,binoculars,4,1,cow,anim_natural,1,natural,1,15,33,3,1,0.972,,,,,,,
63d96d5957cdd8a417721253,2025-08-21_16h45.26.362,GLINT,2024.2.4,Win32,119.9040767,,,,,,,,,,,,,,,,,,,,binoculars,inanim_artificial,4,pineapple,lawnmower,corn,binoculars,snail,train,mushroom,cow,cat,4,1,binoculars,inanim_artificial,1,natural,1,16,34,13,1,0.999,,,,,,,
63d96d5957cdd8a417721253,2025-08-21_16h45.26.362,GLINT,2024.2.4,Win32,119.9040767,,,,,,,,,,,,,,,,,,,,apple,inanim_natural,4,mushroom,corn,butterfly,apple,lawnmower,dog,cat,binoculars,train,4,1,apple,inanim_natural,1,natural,1,17,35,9,1,1.249,,,,,,,
63d96d5957cdd8a417721253,2025-08-21_16h45.26.362,GLINT,2024.2.4,Win32,119.9040767,,,,,,,,,,,,,,,,,,,,corn,inanim_natural,9,house,cow,pineapple,bread,train,snail,bear,lawnmower,corn,9,1,corn,inanim_natural,1,natural,2,0,36,10,1,1.438,,,,,,,
63d96d5957cdd8a417721253,2025-08-21_16h45.26.362,GLINT,2024.2.4,Win32,119.9040767,,,,,,,,,,,,,,,,,,,,apple,inanim_natural,5,bear,airplane,cow,mushroom,apple,car,butterfly,train,avocado,5,1,apple,inanim_natural,1,natural,2,1,37,9,1,1.451,,,,,,,
63d96d5957cdd8a417721253,2025-08-21_16h45.26.362,GLINT,2024.2.4,Win32,119.9040767,,,,,,,,,,,,,,,,,,,,pineapple,inanim_natural,3,snail,cat,pineapple,airplane,train,corn,binoculars,cow,bread,3,1,pineapple,inanim_natural,1,natural,2,2,38,8,1,1.764,,,,,,,
63d96d5957cdd8a417721253,2025-08-21_16h45.26.362,GLINT,2024.2.4,Win32,119.9040767,,,,,,,,,,,,,,,,,,,,car,inanim_artificial,1,car,cow,bread,house,butterfly,bear,binoculars,mushroom,corn,1,1,car,inanim_artificial,1,natural,2,3,39,14,1,0.76,,,,,,,
63d96d5957cdd8a417721253,2025-08-21_16h45.26.362,GLINT,2024.2.4,Win32,119.9040767,,,,,,,,,,,,,,,,,,,,bear,anim_natural,8,pineapple,cow,bread,airplane,snail,house,lawnmower,bear,corn,8,1,bear,anim_natural,1,natural,2,4,40,0,1,1.154,,,,,,,
63d96d5957cdd8a417721253,2025-08-21_16h45.26.362,GLINT,2024.2.4,Win32,119.9040767,,,,,,,,,,,,,,,,,,,,snail,anim_natural,6,binoculars,bear,avocado,car,house,snail,mushroom,apple,dog,6,1,snail,anim_natural,1,natural,2,5,41,5,1,1.439,,,,,,,
63d96d5957cdd8a417721253,2025-08-21_16h45.26.362,GLINT,2024.2.4,Win32,119.9040767,,,,,,,,,,,,,,,,,,,,avocado,inanim_natural,7,bear,binoculars,car,dog,cow,lawnmower,avocado,corn,apple,7,1,avocado,inanim_natural,1,natural,2,6,42,11,1,1.463,,,,,,,
63d96d5957cdd8a417721253,2025-08-21_16h45.26.362,GLINT,2024.2.4,Win32,119.9040767,,,,,,,,,,,,,,,,,,,,cat,anim_natural,9,avocado,lawnmower,binoculars,apple,pineapple,car,bear,dog,cat,9,1,cat,anim_natural,1,natural,2,7,43,2,1,1.398,,,,,,,
63d96d5957cdd8a417721253,2025-08-21_16h45.26.362,GLINT,2024.2.4,Win32,119.9040767,,,,,,,,,,,,,,,,,,,,lawnmower,inanim_artificial,7,cat,corn,cow,binoculars,bear,bread,lawnmower,house,apple,7,1,lawnmower,inanim_artificial,1,natural,2,8,44,16,1,1.094,,,,,,,
63d96d5957cdd8a417721253,2025-08-21_16h45.26.362,GLINT,2024.2.4,Win32,119.9040767,,,,,,,,,,,,,,,,,,,,dog,anim_natural,3,avocado,binoculars,dog,train,house,cow,mushroom,corn,snail,3,1,dog,anim_natural,1,natural,2,9,45,4,1,2.06,,,,,,,
63d96d5957cdd8a417721253,2025-08-21_16h45.26.362,GLINT,2024.2.4,Win32,119.9040767,,,,,,,,,,,,,,,,,,,,mushroom,inanim_natural,5,apple,car,butterfly,binoculars,mushroom,bear,snail,pineapple,train,5,1,mushroom,inanim_natural,1,natural,2,10,46,7,1,0.87,,,,,,,
63d96d5957cdd8a417721253,2025-08-21_16h45.26.362,GLINT,2024.2.4,Win32,119.9040767,,,,,,,,,,,,,,,,,,,,airplane,inanim_artificial,4,train,snail,mushroom,airplane,apple,cat,butterfly,corn,house,4,1,airplane,inanim_artificial,1,natural,2,11,47,12,1,1.012,,,,,,,
63d96d5957cdd8a417721253,2025-08-21_16h45.26.362,GLINT,2024.2.4,Win32,119.9040767,,,,,,,,,,,,,,,,,,,,house,inanim_artificial,7,corn,snail,binoculars,mushroom,cow,cat,house,lawnmower,avocado,7,1,house,inanim_artificial,1,natural,2,12,48,15,1,1.731,,,,,,,
63d96d5957cdd8a417721253,2025-08-21_16h45.26.362,GLINT,2024.2.4,Win32,119.9040767,,,,,,,,,,,,,,,,,,,,bread,inanim_natural,4,cat,dog,mushroom,bread,snail,airplane,car,train,apple,4,1,bread,inanim_natural,1,natural,2,13,49,6,1,0.815,,,,,,,
63d96d5957cdd8a417721253,2025-08-21_16h45.26.362,GLINT,2024.2.4,Win32,119.9040767,,,,,,,,,,,,,,,,,,,,cow,anim_natural,5,lawnmower,house,bread,mushroom,cow,corn,dog,airplane,snail,5,1,cow,anim_natural,1,natural,2,14,50,3,1,0.758,,,,,,,
63d96d5957cdd8a417721253,2025-08-21_16h45.26.362,GLINT,2024.2.4,Win32,119.9040767,,,,,,,,,,,,,,,,,,,,train,inanim_artificial,6,butterfly,corn,bear,cat,mushroom,train,avocado,lawnmower,car,6,1,train,inanim_artificial,1,natural,2,15,51,17,1,1.171,,,,,,,
63d96d5957cdd8a417721253,2025-08-21_16h45.26.362,GLINT,2024.2.4,Win32,119.9040767,,,,,,,,,,,,,,,,,,,,butterfly,anim_natural,3,airplane,apple,butterfly,snail,train,binoculars,cat,mushroom,avocado,3,1,butterfly,anim_natural,1,natural,2,16,52,1,1,1.924,,,,,,,
63d96d5957cdd8a417721253,2025-08-21_16h45.26.362,GLINT,2024.2.4,Win32,119.9040767,,,,,,,,,,,,,,,,,,,,binoculars,inanim_artificial,3,airplane,cow,binoculars,avocado,bear,dog,mushroom,car,apple,3,1,binoculars,inanim_artificial,1,natural,2,17,53,13,1,1.391,,,,,,,
63d96d5957cdd8a417721253,2025-08-21_16h45.26.362,GLINT,2024.2.4,Win32,119.9040767,,,,,,,,,,,,,,,,,,,,car,inanim_artificial,8,avocado,cat,lawnmower,bread,bear,apple,snail,car,airplane,8,1,car,inanim_artificial,1,natural,3,0,54,14,1,1.399,,,,,,,
63d96d5957cdd8a417721253,2025-08-21_16h45.26.362,GLINT,2024.2.4,Win32,119.9040767,,,,,,,,,,,,,,,,,,,,lawnmower,inanim_artificial,4,apple,snail,train,lawnmower,bear,binoculars,avocado,butterfly,pineapple,4,1,lawnmower,inanim_artificial,1,natural,3,1,55,16,1,0.739,,,,,,,
63d96d5957cdd8a417721253,2025-08-21_16h45.26.362,GLINT,2024.2.4,Win32,119.9040767,,,,,,,,,,,,,,,,,,,,dog,anim_natural,5,mushroom,corn,snail,pineapple,dog,train,cat,airplane,binoculars,5,1,dog,anim_natural,1,natural,3,2,56,4,1,0.827,,,,,,,
63d96d5957cdd8a417721253,2025-08-21_16h45.26.362,GLINT,2024.2.4,Win32,119.9040767,,,,,,,,,,,,,,,,,,,,apple,inanim_natural,4,binoculars,avocado,bear,apple,airplane,car,cat,cow,mushroom,4,1,apple,inanim_natural,1,natural,3,3,57,9,1,0.562,,,,,,,
63d96d5957cdd8a417721253,2025-08-21_16h45.26.362,GLINT,2024.2.4,Win32,119.9040767,,,,,,,,,,,,,,,,,,,,train,inanim_artificial,9,snail,bread,lawnmower,pineapple,dog,binoculars,mushroom,butterfly,train,9,1,train,inanim_artificial,1,natural,3,4,58,17,1,2.131,,,,,,,
63d96d5957cdd8a417721253,2025-08-21_16h45.26.362,GLINT,2024.2.4,Win32,119.9040767,,,,,,,,,,,,,,,,,,,,binoculars,inanim_artificial,5,bear,airplane,apple,train,binoculars,dog,cow,bread,avocado,5,1,binoculars,inanim_artificial,1,natural,3,5,59,13,1,0.865,,,,,,,
63d96d5957cdd8a417721253,2025-08-21_16h45.26.362,GLINT,2024.2.4,Win32,119.9040767,,,,,,,,,,,,,,,,,,,,bear,anim_natural,3,corn,car,bear,snail,cat,mushroom,avocado,train,lawnmower,3,1,bear,anim_natural,1,natural,3,6,60,0,1,1.724,,,,,,,
63d96d5957cdd8a417721253,2025-08-21_16h45.26.362,GLINT,2024.2.4,Win32,119.9040767,,,,,,,,,,,,,,,,,,,,butterfly,anim_natural,2,lawnmower,butterfly,pineapple,mushroom,house,car,bear,cow,apple,2,1,butterfly,anim_natural,1,natural,3,7,61,1,1,1.107,,,,,,,
63d96d5957cdd8a417721253,2025-08-21_16h45.26.362,GLINT,2024.2.4,Win32,119.9040767,,,,,,,,,,,,,,,,,,,,bread,inanim_natural,9,snail,house,pineapple,car,train,avocado,dog,cow,bread,9,1,bread,inanim_natural,1,natural,3,8,62,6,1,1.988,,,,,,,
63d96d5957cdd8a417721253,2025-08-21_16h45.26.362,GLINT,2024.2.4,Win32,119.9040767,,,,,,,,,,,,,,,,,,,,avocado,inanim_natural,6,house,bear,apple,butterfly,car,avocado,pineapple,cow,airplane,6,1,avocado,inanim_natural,1,natural,3,9,63,11,1,0.886,,,,,,,
63d96d5957cdd8a417721253,2025-08-21_16h45.26.362,GLINT,2024.2.4,Win32,119.9040767,,,,,,,,,,,,,,,,,,,,cat,anim_natural,4,dog,train,house,cat,corn,pineapple,bread,butterfly,car,4,1,cat,anim_natural,1,natural,3,10,64,2,1,0.626,,,,,,,
63d96d5957cdd8a417721253,2025-08-21_16h45.26.362,GLINT,2024.2.4,Win32,119.9040767,,,,,,,,,,,,,,,,,,,,corn,inanim_natural,2,avocado,corn,lawnmower,airplane,snail,train,bread,dog,bear,2,1,corn,inanim_natural,1,natural,3,11,65,10,1,1.375,,,,,,,
63d96d5957cdd8a417721253,2025-08-21_16h45.26.362,GLINT,2024.2.4,Win32,119.9040767,,,,,,,,,,,,,,,,,,,,snail,anim_natural,9,airplane,bread,lawnmower,cow,pineapple,bear,avocado,car,snail,9,1,snail,anim_natural,1,natural,3,12,66,5,1,1.684,,,,,,,
63d96d5957cdd8a417721253,2025-08-21_16h45.26.362,GLINT,2024.2.4,Win32,119.9040767,,,,,,,,,,,,,,,,,,,,house,inanim_artificial,7,butterfly,airplane,train,pineapple,avocado,apple,house,cow,bear,7,1,house,inanim_artificial,1,natural,3,13,67,15,1,2.335,,,,,,,
63d96d5957cdd8a417721253,2025-08-21_16h45.26.362,GLINT,2024.2.4,Win32,119.9040767,,,,,,,,,,,,,,,,,,,,pineapple,inanim_natural,7,butterfly,apple,lawnmower,cat,train,corn,pineapple,house,dog,7,1,pineapple,inanim_natural,1,natural,3,14,68,8,1,1.509,,,,,,,
63d96d5957cdd8a417721253,2025-08-21_16h45.26.362,GLINT,2024.2.4,Win32,119.9040767,,,,,,,,,,,,,,,,,,,,cow,anim_natural,7,butterfly,bread,lawnmower,cat,car,train,cow,pineapple,mushroom,7,1,cow,anim_natural,1,natural,3,15,69,3,1,2.09,,,,,,,
63d96d5957cdd8a417721253,2025-08-21_16h45.26.362,GLINT,2024.2.4,Win32,119.9040767,,,,,,,,,,,,,,,,,,,,mushroom,inanim_natural,1,mushroom,train,dog,corn,car,cat,bread,bear,lawnmower,1,1,mushroom,inanim_natural,1,natural,3,16,70,7,1,1.113,,,,,,,
63d96d5957cdd8a417721253,2025-08-21_16h45.26.362,GLINT,2024.2.4,Win32,119.9040767,,,,,,,,,,,,,,,,,,,,airplane,inanim_artificial,9,house,snail,cow,car,apple,avocado,dog,pineapple,airplane,9,1,airplane,inanim_artificial,1,natural,3,17,71,12,1,1.591,,,,,,,
63d96d5957cdd8a417721253,2025-08-21_16h45.26.362,GLINT,2024.2.4,Win32,119.9040767,,,,,,,,,,,,,,,,,,,,,,,,,,,,,,,,,,,,,,,,,,,,,0,2,2,0,1,natural
