participant,date,expName,psychopyVersion,OS,frameRate,CorrectResponse,prac_prompt_1,prac_prompt_2,prac_prompt_3,prac_prompt_4,prac_prompt_5,prac_prompt_6,prac_prompt_7,prac_prompt_8,prac_prompt_9,prac_key_resp.keys,prac_key_resp.corr,prac_key_resp.rt,prac_key_resp.duration,prac_loop.thisRepN,prac_loop.thisTrialN,prac_loop.thisN,prac_loop.thisIndex,prac_loop.ran,object_class,object_category,corr_ans,prompt_1,prompt_2,prompt_3,prompt_4,prompt_5,prompt_6,prompt_7,prompt_8,prompt_9,key_resp.keys,key_resp.corr,key_resp.rt,key_resp.duration,response_label,response_animacy,corr_animacy,img_condition,test_loop.thisRepN,test_loop.thisTrialN,test_loop.thisN,test_loop.thisIndex,test_loop.ran,randomize_blocks.thisRepN,randomize_blocks.thisTrialN,randomize_blocks.thisN,randomize_blocks.thisIndex,randomize_blocks.ran,block_condition
650b03136ab3d4c832d98b71,2025-08-21_17h31.58.870,GLINT,2024.2.4,Win32,61.34969325,,,,,,,,,,,,,,,,,,,,,,,,,,,,,,,,,,,,,,,,,,,,,,,,,,
650b03136ab3d4c832d98b71,2025-08-21_17h31.58.870,GLINT,2024.2.4,Win32,61.34969325,,,,,,,,,,,,,,,,,,,,,,,,,,,,,,,,,,,,,,,,,,,,,,,,,,
650b03136ab3d4c832d98b71,2025-08-21_17h31.58.870,GLINT,2024.2.4,Win32,61.34969325,,,,,,,,,,,,,,,,,,,,,,,,,,,,,,,,,,,,,,,,,,,,,,,,,,
650b03136ab3d4c832d98b71,2025-08-21_17h31.58.870,GLINT,2024.2.4,Win32,61.34969325,5,dog,duck,chair,bicycle,tree,hand,leaf,truck,flower,9,0,7.0551,,0,0,0,4,1,tree,inanim_natural,,,,,,,,,,,,,,,,,,,,,,,,,,,,,
650b03136ab3d4c832d98b71,2025-08-21_17h31.58.870,GLINT,2024.2.4,Win32,61.34969325,2,dog,hand,tree,leaf,chair,truck,bicycle,flower,duck,2,1,4.5995,,0,1,1,0,1,hand,anim_natural,,,,,,,,,,,,,,,,,,,,,,,,,,,,,
650b03136ab3d4c832d98b71,2025-08-21_17h31.58.870,GLINT,2024.2.4,Win32,61.34969325,7,tree,duck,hand,chair,truck,bicycle,flower,dog,leaf,7,1,6.1282,,0,2,2,3,1,flower,inanim_natural,,,,,,,,,,,,,,,,,,,,,,,,,,,,,
650b03136ab3d4c832d98b71,2025-08-21_17h31.58.870,GLINT,2024.2.4,Win32,61.34969325,3,duck,leaf,dog,chair,flower,tree,hand,bicycle,truck,3,1,1.8807,,0,3,3,2,1,dog,anim_natural,,,,,,,,,,,,,,,,,,,,,,,,,,,,,
650b03136ab3d4c832d98b71,2025-08-21_17h31.58.870,GLINT,2024.2.4,Win32,61.34969325,9,leaf,dog,flower,hand,truck,bicycle,tree,chair,duck,9,1,1.7759,,0,4,4,1,1,duck,anim_natural,,,,,,,,,,,,,,,,,,,,,,,,,,,,,
650b03136ab3d4c832d98b71,2025-08-21_17h31.58.870,GLINT,2024.2.4,Win32,61.34969325,,,,,,,,,,,,,,,,,,,,airplane,inanim_artificial,2,cat,airplane,lawnmower,bear,train,mushroom,butterfly,pineapple,apple,2,1,2.3892,,airplane,inanim_artificial,1,line_drawing,0,0,0,12,1,,,,,,
650b03136ab3d4c832d98b71,2025-08-21_17h31.58.870,GLINT,2024.2.4,Win32,61.34969325,,,,,,,,,,,,,,,,,,,,cat,anim_natural,9,pineapple,house,train,cow,bear,airplane,mushroom,apple,cat,1,0,2.6626,,pineapple,inanim_natural,0,line_drawing,0,1,1,2,1,,,,,,
650b03136ab3d4c832d98b71,2025-08-21_17h31.58.870,GLINT,2024.2.4,Win32,61.34969325,,,,,,,,,,,,,,,,,,,,house,inanim_artificial,9,airplane,train,avocado,bread,pineapple,snail,bear,butterfly,house,9,1,1.6674,,house,inanim_artificial,1,line_drawing,0,2,2,15,1,,,,,,
650b03136ab3d4c832d98b71,2025-08-21_17h31.58.870,GLINT,2024.2.4,Win32,61.34969325,,,,,,,,,,,,,,,,,,,,lawnmower,inanim_artificial,8,apple,snail,car,cat,cow,corn,mushroom,lawnmower,airplane,8,1,1.222,,lawnmower,inanim_artificial,1,line_drawing,0,3,3,16,1,,,,,,
650b03136ab3d4c832d98b71,2025-08-21_17h31.58.870,GLINT,2024.2.4,Win32,61.34969325,,,,,,,,,,,,,,,,,,,,dog,anim_natural,7,butterfly,bread,apple,snail,lawnmower,airplane,dog,car,mushroom,7,1,1.7194,,dog,anim_natural,1,line_drawing,0,4,4,4,1,,,,,,
650b03136ab3d4c832d98b71,2025-08-21_17h31.58.870,GLINT,2024.2.4,Win32,61.34969325,,,,,,,,,,,,,,,,,,,,corn,inanim_natural,3,house,cow,corn,dog,binoculars,car,bear,bread,avocado,3,1,2.8878,,corn,inanim_natural,1,line_drawing,0,5,5,10,1,,,,,,
650b03136ab3d4c832d98b71,2025-08-21_17h31.58.870,GLINT,2024.2.4,Win32,61.34969325,,,,,,,,,,,,,,,,,,,,binoculars,inanim_artificial,3,pineapple,avocado,binoculars,house,corn,bear,lawnmower,snail,dog,,0,,,no response,no response,0,line_drawing,0,6,6,13,1,,,,,,
650b03136ab3d4c832d98b71,2025-08-21_17h31.58.870,GLINT,2024.2.4,Win32,61.34969325,,,,,,,,,,,,,,,,,,,,car,inanim_artificial,2,bear,car,dog,cat,binoculars,apple,train,avocado,pineapple,2,1,1.1018,,car,inanim_artificial,1,line_drawing,0,7,7,14,1,,,,,,
650b03136ab3d4c832d98b71,2025-08-21_17h31.58.870,GLINT,2024.2.4,Win32,61.34969325,,,,,,,,,,,,,,,,,,,,butterfly,anim_natural,9,car,avocado,mushroom,house,snail,bear,apple,binoculars,butterfly,9,1,3.0917,,butterfly,anim_natural,1,line_drawing,0,8,8,1,1,,,,,,
650b03136ab3d4c832d98b71,2025-08-21_17h31.58.870,GLINT,2024.2.4,Win32,61.34969325,,,,,,,,,,,,,,,,,,,,avocado,inanim_natural,1,avocado,snail,dog,car,binoculars,apple,cat,pineapple,lawnmower,8,0,2.0634,,pineapple,inanim_natural,1,line_drawing,0,9,9,11,1,,,,,,
650b03136ab3d4c832d98b71,2025-08-21_17h31.58.870,GLINT,2024.2.4,Win32,61.34969325,,,,,,,,,,,,,,,,,,,,cow,anim_natural,5,apple,pineapple,car,butterfly,cow,train,binoculars,avocado,snail,5,1,0.9605,,cow,anim_natural,1,line_drawing,0,10,10,3,1,,,,,,
650b03136ab3d4c832d98b71,2025-08-21_17h31.58.870,GLINT,2024.2.4,Win32,61.34969325,,,,,,,,,,,,,,,,,,,,bear,anim_natural,7,binoculars,train,apple,bread,house,dog,bear,butterfly,pineapple,7,1,2.1227,,bear,anim_natural,1,line_drawing,0,11,11,0,1,,,,,,
650b03136ab3d4c832d98b71,2025-08-21_17h31.58.870,GLINT,2024.2.4,Win32,61.34969325,,,,,,,,,,,,,,,,,,,,pineapple,inanim_natural,6,bread,butterfly,cow,house,binoculars,pineapple,avocado,snail,train,6,1,1.7581,,pineapple,inanim_natural,1,line_drawing,0,12,12,8,1,,,,,,
650b03136ab3d4c832d98b71,2025-08-21_17h31.58.870,GLINT,2024.2.4,Win32,61.34969325,,,,,,,,,,,,,,,,,,,,apple,inanim_natural,1,apple,house,binoculars,corn,cow,snail,bear,avocado,train,1,1,1.4127,,apple,inanim_natural,1,line_drawing,0,13,13,9,1,,,,,,
650b03136ab3d4c832d98b71,2025-08-21_17h31.58.870,GLINT,2024.2.4,Win32,61.34969325,,,,,,,,,,,,,,,,,,,,snail,anim_natural,6,corn,cow,mushroom,lawnmower,binoculars,snail,airplane,cat,bread,6,1,3.3418,,snail,anim_natural,1,line_drawing,0,14,14,5,1,,,,,,
650b03136ab3d4c832d98b71,2025-08-21_17h31.58.870,GLINT,2024.2.4,Win32,61.34969325,,,,,,,,,,,,,,,,,,,,bread,inanim_natural,7,mushroom,cat,house,lawnmower,cow,snail,bread,airplane,corn,7,1,2.1094,,bread,inanim_natural,1,line_drawing,0,15,15,6,1,,,,,,
650b03136ab3d4c832d98b71,2025-08-21_17h31.58.870,GLINT,2024.2.4,Win32,61.34969325,,,,,,,,,,,,,,,,,,,,train,inanim_artificial,4,snail,house,corn,train,apple,bread,cat,dog,lawnmower,4,1,2.6663,,train,inanim_artificial,1,line_drawing,0,16,16,17,1,,,,,,
650b03136ab3d4c832d98b71,2025-08-21_17h31.58.870,GLINT,2024.2.4,Win32,61.34969325,,,,,,,,,,,,,,,,,,,,mushroom,inanim_natural,1,mushroom,lawnmower,cow,train,corn,bread,snail,airplane,dog,1,1,2.3676,,mushroom,inanim_natural,1,line_drawing,0,17,17,7,1,,,,,,
650b03136ab3d4c832d98b71,2025-08-21_17h31.58.870,GLINT,2024.2.4,Win32,61.34969325,,,,,,,,,,,,,,,,,,,,cat,anim_natural,7,binoculars,cow,snail,avocado,corn,car,cat,pineapple,lawnmower,8,0,2.5898,,pineapple,inanim_natural,0,line_drawing,1,0,18,2,1,,,,,,
650b03136ab3d4c832d98b71,2025-08-21_17h31.58.870,GLINT,2024.2.4,Win32,61.34969325,,,,,,,,,,,,,,,,,,,,bear,anim_natural,1,bear,apple,bread,car,lawnmower,snail,airplane,avocado,cow,1,1,1.9554,,bear,anim_natural,1,line_drawing,1,1,19,0,1,,,,,,
650b03136ab3d4c832d98b71,2025-08-21_17h31.58.870,GLINT,2024.2.4,Win32,61.34969325,,,,,,,,,,,,,,,,,,,,airplane,inanim_artificial,6,corn,bread,train,avocado,snail,airplane,car,cow,butterfly,6,1,1.8783,,airplane,inanim_artificial,1,line_drawing,1,2,20,12,1,,,,,,
650b03136ab3d4c832d98b71,2025-08-21_17h31.58.870,GLINT,2024.2.4,Win32,61.34969325,,,,,,,,,,,,,,,,,,,,train,inanim_artificial,5,apple,snail,car,bread,train,cow,pineapple,airplane,bear,5,1,1.5359,,train,inanim_artificial,1,line_drawing,1,3,21,17,1,,,,,,
650b03136ab3d4c832d98b71,2025-08-21_17h31.58.870,GLINT,2024.2.4,Win32,61.34969325,,,,,,,,,,,,,,,,,,,,car,inanim_artificial,8,cat,train,apple,mushroom,cow,airplane,dog,car,avocado,8,1,2.6499,,car,inanim_artificial,1,line_drawing,1,4,22,14,1,,,,,,
650b03136ab3d4c832d98b71,2025-08-21_17h31.58.870,GLINT,2024.2.4,Win32,61.34969325,,,,,,,,,,,,,,,,,,,,dog,anim_natural,4,corn,apple,mushroom,dog,bear,butterfly,binoculars,house,train,4,1,1.4862,,dog,anim_natural,1,line_drawing,1,5,23,4,1,,,,,,
650b03136ab3d4c832d98b71,2025-08-21_17h31.58.870,GLINT,2024.2.4,Win32,61.34969325,,,,,,,,,,,,,,,,,,,,snail,anim_natural,1,snail,binoculars,corn,bread,mushroom,butterfly,lawnmower,house,cow,1,1,2.8243,,snail,anim_natural,1,line_drawing,1,6,24,5,1,,,,,,
650b03136ab3d4c832d98b71,2025-08-21_17h31.58.870,GLINT,2024.2.4,Win32,61.34969325,,,,,,,,,,,,,,,,,,,,house,inanim_artificial,3,car,snail,house,pineapple,mushroom,lawnmower,dog,corn,butterfly,3,1,2.5428,,house,inanim_artificial,1,line_drawing,1,7,25,15,1,,,,,,
650b03136ab3d4c832d98b71,2025-08-21_17h31.58.870,GLINT,2024.2.4,Win32,61.34969325,,,,,,,,,,,,,,,,,,,,lawnmower,inanim_artificial,8,corn,car,dog,bread,airplane,cow,pineapple,lawnmower,snail,8,1,1.1757,,lawnmower,inanim_artificial,1,line_drawing,1,8,26,16,1,,,,,,
650b03136ab3d4c832d98b71,2025-08-21_17h31.58.870,GLINT,2024.2.4,Win32,61.34969325,,,,,,,,,,,,,,,,,,,,butterfly,anim_natural,5,train,lawnmower,bread,house,butterfly,corn,apple,bear,cow,5,1,0.8956,,butterfly,anim_natural,1,line_drawing,1,9,27,1,1,,,,,,
650b03136ab3d4c832d98b71,2025-08-21_17h31.58.870,GLINT,2024.2.4,Win32,61.34969325,,,,,,,,,,,,,,,,,,,,pineapple,inanim_natural,8,car,train,corn,house,dog,bear,snail,pineapple,bread,8,1,3.2766,,pineapple,inanim_natural,1,line_drawing,1,10,28,8,1,,,,,,
650b03136ab3d4c832d98b71,2025-08-21_17h31.58.870,GLINT,2024.2.4,Win32,61.34969325,,,,,,,,,,,,,,,,,,,,bread,inanim_natural,4,binoculars,butterfly,lawnmower,bread,cow,avocado,apple,house,cat,4,1,3.338,,bread,inanim_natural,1,line_drawing,1,11,29,6,1,,,,,,
650b03136ab3d4c832d98b71,2025-08-21_17h31.58.870,GLINT,2024.2.4,Win32,61.34969325,,,,,,,,,,,,,,,,,,,,cow,anim_natural,2,binoculars,cow,snail,house,avocado,lawnmower,pineapple,mushroom,cat,2,1,0.9921,,cow,anim_natural,1,line_drawing,1,12,30,3,1,,,,,,
650b03136ab3d4c832d98b71,2025-08-21_17h31.58.870,GLINT,2024.2.4,Win32,61.34969325,,,,,,,,,,,,,,,,,,,,apple,inanim_natural,8,bear,binoculars,pineapple,house,snail,cat,train,apple,mushroom,8,1,1.6187,,apple,inanim_natural,1,line_drawing,1,13,31,9,1,,,,,,
650b03136ab3d4c832d98b71,2025-08-21_17h31.58.870,GLINT,2024.2.4,Win32,61.34969325,,,,,,,,,,,,,,,,,,,,binoculars,inanim_artificial,5,bear,dog,cat,airplane,binoculars,pineapple,bread,house,apple,5,1,1.3231,,binoculars,inanim_artificial,1,line_drawing,1,14,32,13,1,,,,,,
650b03136ab3d4c832d98b71,2025-08-21_17h31.58.870,GLINT,2024.2.4,Win32,61.34969325,,,,,,,,,,,,,,,,,,,,avocado,inanim_natural,3,dog,mushroom,avocado,train,cow,lawnmower,bear,car,apple,3,1,1.6898,,avocado,inanim_natural,1,line_drawing,1,15,33,11,1,,,,,,
650b03136ab3d4c832d98b71,2025-08-21_17h31.58.870,GLINT,2024.2.4,Win32,61.34969325,,,,,,,,,,,,,,,,,,,,corn,inanim_natural,7,house,dog,bread,cow,car,binoculars,corn,butterfly,mushroom,7,1,2.581,,corn,inanim_natural,1,line_drawing,1,16,34,10,1,,,,,,
650b03136ab3d4c832d98b71,2025-08-21_17h31.58.870,GLINT,2024.2.4,Win32,61.34969325,,,,,,,,,,,,,,,,,,,,mushroom,inanim_natural,6,bear,dog,house,binoculars,bread,mushroom,pineapple,lawnmower,cow,6,1,1.4081,,mushroom,inanim_natural,1,line_drawing,1,17,35,7,1,,,,,,
650b03136ab3d4c832d98b71,2025-08-21_17h31.58.870,GLINT,2024.2.4,Win32,61.34969325,,,,,,,,,,,,,,,,,,,,butterfly,anim_natural,2,mushroom,butterfly,lawnmower,snail,corn,airplane,avocado,bear,train,2,1,1.1529,,butterfly,anim_natural,1,line_drawing,2,0,36,1,1,,,,,,
650b03136ab3d4c832d98b71,2025-08-21_17h31.58.870,GLINT,2024.2.4,Win32,61.34969325,,,,,,,,,,,,,,,,,,,,bread,inanim_natural,3,snail,train,bread,lawnmower,pineapple,avocado,bear,airplane,cow,3,1,2.9588,,bread,inanim_natural,1,line_drawing,2,1,37,6,1,,,,,,
650b03136ab3d4c832d98b71,2025-08-21_17h31.58.870,GLINT,2024.2.4,Win32,61.34969325,,,,,,,,,,,,,,,,,,,,avocado,inanim_natural,8,bear,corn,train,dog,butterfly,apple,lawnmower,avocado,airplane,8,1,2.4741,,avocado,inanim_natural,1,line_drawing,2,2,38,11,1,,,,,,
650b03136ab3d4c832d98b71,2025-08-21_17h31.58.870,GLINT,2024.2.4,Win32,61.34969325,,,,,,,,,,,,,,,,,,,,airplane,inanim_artificial,8,dog,car,bread,cat,cow,train,pineapple,airplane,apple,8,1,2.698,,airplane,inanim_artificial,1,line_drawing,2,3,39,12,1,,,,,,
650b03136ab3d4c832d98b71,2025-08-21_17h31.58.870,GLINT,2024.2.4,Win32,61.34969325,,,,,,,,,,,,,,,,,,,,train,inanim_artificial,1,train,corn,snail,cow,mushroom,lawnmower,apple,bear,house,1,1,2.4287,,train,inanim_artificial,1,line_drawing,2,4,40,17,1,,,,,,
650b03136ab3d4c832d98b71,2025-08-21_17h31.58.870,GLINT,2024.2.4,Win32,61.34969325,,,,,,,,,,,,,,,,,,,,apple,inanim_natural,2,dog,apple,bear,bread,house,car,snail,pineapple,train,2,1,1.3717,,apple,inanim_natural,1,line_drawing,2,5,41,9,1,,,,,,
650b03136ab3d4c832d98b71,2025-08-21_17h31.58.870,GLINT,2024.2.4,Win32,61.34969325,,,,,,,,,,,,,,,,,,,,cat,anim_natural,7,avocado,airplane,dog,house,bread,lawnmower,cat,corn,bear,3,0,1.41,,dog,anim_natural,1,line_drawing,2,6,42,2,1,,,,,,
650b03136ab3d4c832d98b71,2025-08-21_17h31.58.870,GLINT,2024.2.4,Win32,61.34969325,,,,,,,,,,,,,,,,,,,,mushroom,inanim_natural,7,binoculars,bear,cow,avocado,pineapple,lawnmower,mushroom,airplane,dog,5,0,4.9423,,pineapple,inanim_natural,1,line_drawing,2,7,43,7,1,,,,,,
650b03136ab3d4c832d98b71,2025-08-21_17h31.58.870,GLINT,2024.2.4,Win32,61.34969325,,,,,,,,,,,,,,,,,,,,lawnmower,inanim_artificial,6,apple,train,bear,binoculars,corn,lawnmower,butterfly,cow,mushroom,6,1,0.9162,,lawnmower,inanim_artificial,1,line_drawing,2,8,44,16,1,,,,,,
650b03136ab3d4c832d98b71,2025-08-21_17h31.58.870,GLINT,2024.2.4,Win32,61.34969325,,,,,,,,,,,,,,,,,,,,corn,inanim_natural,6,dog,butterfly,bear,car,train,corn,airplane,pineapple,bread,6,1,2.9551,,corn,inanim_natural,1,line_drawing,2,9,45,10,1,,,,,,
650b03136ab3d4c832d98b71,2025-08-21_17h31.58.870,GLINT,2024.2.4,Win32,61.34969325,,,,,,,,,,,,,,,,,,,,car,inanim_artificial,5,corn,pineapple,cat,lawnmower,car,bear,bread,binoculars,butterfly,5,1,1.6363,,car,inanim_artificial,1,line_drawing,2,10,46,14,1,,,,,,
650b03136ab3d4c832d98b71,2025-08-21_17h31.58.870,GLINT,2024.2.4,Win32,61.34969325,,,,,,,,,,,,,,,,,,,,snail,anim_natural,4,binoculars,car,train,snail,avocado,apple,dog,cat,corn,4,1,2.1719,,snail,anim_natural,1,line_drawing,2,11,47,5,1,,,,,,
650b03136ab3d4c832d98b71,2025-08-21_17h31.58.870,GLINT,2024.2.4,Win32,61.34969325,,,,,,,,,,,,,,,,,,,,cow,anim_natural,6,corn,dog,snail,pineapple,mushroom,cow,train,lawnmower,airplane,6,1,1.44,,cow,anim_natural,1,line_drawing,2,12,48,3,1,,,,,,
650b03136ab3d4c832d98b71,2025-08-21_17h31.58.870,GLINT,2024.2.4,Win32,61.34969325,,,,,,,,,,,,,,,,,,,,house,inanim_artificial,1,house,mushroom,dog,corn,train,car,cat,apple,cow,1,1,1.4086,,house,inanim_artificial,1,line_drawing,2,13,49,15,1,,,,,,
650b03136ab3d4c832d98b71,2025-08-21_17h31.58.870,GLINT,2024.2.4,Win32,61.34969325,,,,,,,,,,,,,,,,,,,,bear,anim_natural,3,binoculars,avocado,bear,car,apple,cow,mushroom,house,dog,3,1,1.4534,,bear,anim_natural,1,line_drawing,2,14,50,0,1,,,,,,
650b03136ab3d4c832d98b71,2025-08-21_17h31.58.870,GLINT,2024.2.4,Win32,61.34969325,,,,,,,,,,,,,,,,,,,,pineapple,inanim_natural,5,bread,car,dog,butterfly,pineapple,cat,corn,lawnmower,binoculars,5,1,1.1372,,pineapple,inanim_natural,1,line_drawing,2,15,51,8,1,,,,,,
650b03136ab3d4c832d98b71,2025-08-21_17h31.58.870,GLINT,2024.2.4,Win32,61.34969325,,,,,,,,,,,,,,,,,,,,binoculars,inanim_artificial,6,pineapple,airplane,train,bread,butterfly,binoculars,snail,avocado,bear,6,1,3.9649,,binoculars,inanim_artificial,1,line_drawing,2,16,52,13,1,,,,,,
650b03136ab3d4c832d98b71,2025-08-21_17h31.58.870,GLINT,2024.2.4,Win32,61.34969325,,,,,,,,,,,,,,,,,,,,dog,anim_natural,5,cow,lawnmower,binoculars,pineapple,dog,apple,avocado,house,snail,5,1,1.6807,,dog,anim_natural,1,line_drawing,2,17,53,4,1,,,,,,
650b03136ab3d4c832d98b71,2025-08-21_17h31.58.870,GLINT,2024.2.4,Win32,61.34969325,,,,,,,,,,,,,,,,,,,,bread,inanim_natural,2,mushroom,bread,butterfly,cow,cat,pineapple,train,airplane,house,2,1,0.9362,,bread,inanim_natural,1,line_drawing,3,0,54,6,1,,,,,,
650b03136ab3d4c832d98b71,2025-08-21_17h31.58.870,GLINT,2024.2.4,Win32,61.34969325,,,,,,,,,,,,,,,,,,,,train,inanim_artificial,4,avocado,pineapple,cat,train,binoculars,bread,dog,airplane,bear,4,1,3.1173,,train,inanim_artificial,1,line_drawing,3,1,55,17,1,,,,,,
650b03136ab3d4c832d98b71,2025-08-21_17h31.58.870,GLINT,2024.2.4,Win32,61.34969325,,,,,,,,,,,,,,,,,,,,dog,anim_natural,6,airplane,bear,pineapple,lawnmower,cow,dog,car,bread,corn,2,0,2.164,,bear,anim_natural,1,line_drawing,3,2,56,4,1,,,,,,
650b03136ab3d4c832d98b71,2025-08-21_17h31.58.870,GLINT,2024.2.4,Win32,61.34969325,,,,,,,,,,,,,,,,,,,,mushroom,inanim_natural,8,lawnmower,snail,airplane,dog,binoculars,pineapple,corn,mushroom,butterfly,8,1,2.1402,,mushroom,inanim_natural,1,line_drawing,3,3,57,7,1,,,,,,
650b03136ab3d4c832d98b71,2025-08-21_17h31.58.870,GLINT,2024.2.4,Win32,61.34969325,,,,,,,,,,,,,,,,,,,,butterfly,anim_natural,3,cat,lawnmower,butterfly,bread,car,snail,avocado,apple,train,3,1,1.2821,,butterfly,anim_natural,1,line_drawing,3,4,58,1,1,,,,,,
650b03136ab3d4c832d98b71,2025-08-21_17h31.58.870,GLINT,2024.2.4,Win32,61.34969325,,,,,,,,,,,,,,,,,,,,snail,anim_natural,1,snail,train,apple,airplane,pineapple,lawnmower,butterfly,corn,cow,1,1,1.3003,,snail,anim_natural,1,line_drawing,3,5,59,5,1,,,,,,
650b03136ab3d4c832d98b71,2025-08-21_17h31.58.870,GLINT,2024.2.4,Win32,61.34969325,,,,,,,,,,,,,,,,,,,,bear,anim_natural,6,corn,car,avocado,cat,cow,bear,house,train,pineapple,6,1,3.161,,bear,anim_natural,1,line_drawing,3,6,60,0,1,,,,,,
650b03136ab3d4c832d98b71,2025-08-21_17h31.58.870,GLINT,2024.2.4,Win32,61.34969325,,,,,,,,,,,,,,,,,,,,apple,inanim_natural,4,corn,house,cat,apple,mushroom,car,cow,bear,airplane,5,0,1.6595,,mushroom,inanim_natural,1,line_drawing,3,7,61,9,1,,,,,,
650b03136ab3d4c832d98b71,2025-08-21_17h31.58.870,GLINT,2024.2.4,Win32,61.34969325,,,,,,,,,,,,,,,,,,,,corn,inanim_natural,9,mushroom,binoculars,bear,avocado,car,train,dog,cat,corn,9,1,2.9604,,corn,inanim_natural,1,line_drawing,3,8,62,10,1,,,,,,
650b03136ab3d4c832d98b71,2025-08-21_17h31.58.870,GLINT,2024.2.4,Win32,61.34969325,,,,,,,,,,,,,,,,,,,,avocado,inanim_natural,2,bread,avocado,lawnmower,airplane,train,cow,butterfly,bear,corn,9,0,4.0142,,corn,inanim_natural,1,line_drawing,3,9,63,11,1,,,,,,
650b03136ab3d4c832d98b71,2025-08-21_17h31.58.870,GLINT,2024.2.4,Win32,61.34969325,,,,,,,,,,,,,,,,,,,,cat,anim_natural,4,car,pineapple,dog,cat,apple,train,binoculars,bread,butterfly,3,0,1.0531,,dog,anim_natural,1,line_drawing,3,10,64,2,1,,,,,,
650b03136ab3d4c832d98b71,2025-08-21_17h31.58.870,GLINT,2024.2.4,Win32,61.34969325,,,,,,,,,,,,,,,,,,,,lawnmower,inanim_artificial,8,cow,butterfly,train,cat,house,bread,corn,lawnmower,apple,8,1,1.3468,,lawnmower,inanim_artificial,1,line_drawing,3,11,65,16,1,,,,,,
650b03136ab3d4c832d98b71,2025-08-21_17h31.58.870,GLINT,2024.2.4,Win32,61.34969325,,,,,,,,,,,,,,,,,,,,car,inanim_artificial,7,cat,house,butterfly,corn,lawnmower,mushroom,car,apple,cow,7,1,2.418,,car,inanim_artificial,1,line_drawing,3,12,66,14,1,,,,,,
650b03136ab3d4c832d98b71,2025-08-21_17h31.58.870,GLINT,2024.2.4,Win32,61.34969325,,,,,,,,,,,,,,,,,,,,binoculars,inanim_artificial,7,snail,train,cat,mushroom,apple,corn,binoculars,lawnmower,bear,7,1,1.9913,,binoculars,inanim_artificial,1,line_drawing,3,13,67,13,1,,,,,,
650b03136ab3d4c832d98b71,2025-08-21_17h31.58.870,GLINT,2024.2.4,Win32,61.34969325,,,,,,,,,,,,,,,,,,,,cow,anim_natural,7,car,mushroom,bread,dog,binoculars,airplane,cow,snail,pineapple,7,1,1.8764,,cow,anim_natural,1,line_drawing,3,14,68,3,1,,,,,,
650b03136ab3d4c832d98b71,2025-08-21_17h31.58.870,GLINT,2024.2.4,Win32,61.34969325,,,,,,,,,,,,,,,,,,,,airplane,inanim_artificial,8,cat,bread,apple,bear,butterfly,mushroom,car,airplane,train,8,1,2.4323,,airplane,inanim_artificial,1,line_drawing,3,15,69,12,1,,,,,,
650b03136ab3d4c832d98b71,2025-08-21_17h31.58.870,GLINT,2024.2.4,Win32,61.34969325,,,,,,,,,,,,,,,,,,,,pineapple,inanim_natural,1,pineapple,binoculars,apple,bear,dog,train,corn,airplane,cow,1,1,1.4997,,pineapple,inanim_natural,1,line_drawing,3,16,70,8,1,,,,,,
650b03136ab3d4c832d98b71,2025-08-21_17h31.58.870,GLINT,2024.2.4,Win32,61.34969325,,,,,,,,,,,,,,,,,,,,house,inanim_artificial,1,house,car,bear,cow,dog,pineapple,lawnmower,avocado,corn,1,1,4.3848,,house,inanim_artificial,1,line_drawing,3,17,71,15,1,,,,,,
650b03136ab3d4c832d98b71,2025-08-21_17h31.58.870,GLINT,2024.2.4,Win32,61.34969325,,,,,,,,,,,,,,,,,,,,,,,,,,,,,,,,,,,,,,,,,,,,,0,0,0,1,1,line_drawing
650b03136ab3d4c832d98b71,2025-08-21_17h31.58.870,GLINT,2024.2.4,Win32,61.34969325,,,,,,,,,,,,,,,,,,,,mushroom,inanim_natural,1,mushroom,snail,dog,train,corn,airplane,car,cat,avocado,1,1,1.5753,,mushroom,inanim_natural,1,natural,0,0,0,7,1,,,,,,
650b03136ab3d4c832d98b71,2025-08-21_17h31.58.870,GLINT,2024.2.4,Win32,61.34969325,,,,,,,,,,,,,,,,,,,,binoculars,inanim_artificial,5,lawnmower,airplane,apple,snail,binoculars,cat,corn,dog,bread,5,1,0.8074,,binoculars,inanim_artificial,1,natural,0,1,1,13,1,,,,,,
650b03136ab3d4c832d98b71,2025-08-21_17h31.58.870,GLINT,2024.2.4,Win32,61.34969325,,,,,,,,,,,,,,,,,,,,bread,inanim_natural,6,airplane,house,pineapple,car,avocado,bread,bear,cat,butterfly,6,1,1.5092,,bread,inanim_natural,1,natural,0,2,2,6,1,,,,,,
650b03136ab3d4c832d98b71,2025-08-21_17h31.58.870,GLINT,2024.2.4,Win32,61.34969325,,,,,,,,,,,,,,,,,,,,lawnmower,inanim_artificial,7,corn,avocado,cat,cow,bear,binoculars,lawnmower,car,mushroom,7,1,1.6116,,lawnmower,inanim_artificial,1,natural,0,3,3,16,1,,,,,,
650b03136ab3d4c832d98b71,2025-08-21_17h31.58.870,GLINT,2024.2.4,Win32,61.34969325,,,,,,,,,,,,,,,,,,,,dog,anim_natural,3,mushroom,corn,dog,apple,train,cat,lawnmower,butterfly,house,3,1,0.9475,,dog,anim_natural,1,natural,0,4,4,4,1,,,,,,
650b03136ab3d4c832d98b71,2025-08-21_17h31.58.870,GLINT,2024.2.4,Win32,61.34969325,,,,,,,,,,,,,,,,,,,,snail,anim_natural,4,cow,airplane,cat,snail,apple,corn,car,avocado,train,4,1,1.4631,,snail,anim_natural,1,natural,0,5,5,5,1,,,,,,
650b03136ab3d4c832d98b71,2025-08-21_17h31.58.870,GLINT,2024.2.4,Win32,61.34969325,,,,,,,,,,,,,,,,,,,,bear,anim_natural,8,house,binoculars,bread,lawnmower,cat,snail,avocado,bear,corn,8,1,2.0048,,bear,anim_natural,1,natural,0,6,6,0,1,,,,,,
650b03136ab3d4c832d98b71,2025-08-21_17h31.58.870,GLINT,2024.2.4,Win32,61.34969325,,,,,,,,,,,,,,,,,,,,train,inanim_artificial,6,car,cat,mushroom,bear,butterfly,train,house,bread,avocado,,0,,,no response,no response,0,natural,0,7,7,17,1,,,,,,
650b03136ab3d4c832d98b71,2025-08-21_17h31.58.870,GLINT,2024.2.4,Win32,61.34969325,,,,,,,,,,,,,,,,,,,,avocado,inanim_natural,2,bear,avocado,train,lawnmower,cow,butterfly,bread,apple,car,2,1,1.1446,,avocado,inanim_natural,1,natural,0,8,8,11,1,,,,,,
650b03136ab3d4c832d98b71,2025-08-21_17h31.58.870,GLINT,2024.2.4,Win32,61.34969325,,,,,,,,,,,,,,,,,,,,butterfly,anim_natural,8,lawnmower,bread,dog,avocado,binoculars,train,mushroom,butterfly,cow,8,1,1.4981,,butterfly,anim_natural,1,natural,0,9,9,1,1,,,,,,
650b03136ab3d4c832d98b71,2025-08-21_17h31.58.870,GLINT,2024.2.4,Win32,61.34969325,,,,,,,,,,,,,,,,,,,,corn,inanim_natural,7,pineapple,dog,avocado,cat,house,binoculars,corn,cow,train,7,1,2.5114,,corn,inanim_natural,1,natural,0,10,10,10,1,,,,,,
650b03136ab3d4c832d98b71,2025-08-21_17h31.58.870,GLINT,2024.2.4,Win32,61.34969325,,,,,,,,,,,,,,,,,,,,cow,anim_natural,9,car,bear,avocado,bread,apple,binoculars,butterfly,house,cow,9,1,2.8789,,cow,anim_natural,1,natural,0,11,11,3,1,,,,,,
650b03136ab3d4c832d98b71,2025-08-21_17h31.58.870,GLINT,2024.2.4,Win32,61.34969325,,,,,,,,,,,,,,,,,,,,cat,anim_natural,7,corn,dog,binoculars,butterfly,car,pineapple,cat,avocado,house,7,1,1.7461,,cat,anim_natural,1,natural,0,12,12,2,1,,,,,,
650b03136ab3d4c832d98b71,2025-08-21_17h31.58.870,GLINT,2024.2.4,Win32,61.34969325,,,,,,,,,,,,,,,,,,,,car,inanim_artificial,9,pineapple,butterfly,bread,bear,airplane,lawnmower,mushroom,dog,car,9,1,3.0743,,car,inanim_artificial,1,natural,0,13,13,14,1,,,,,,
650b03136ab3d4c832d98b71,2025-08-21_17h31.58.870,GLINT,2024.2.4,Win32,61.34969325,,,,,,,,,,,,,,,,,,,,house,inanim_artificial,9,airplane,car,corn,snail,bear,dog,bread,apple,house,9,1,4.2666,,house,inanim_artificial,1,natural,0,14,14,15,1,,,,,,
650b03136ab3d4c832d98b71,2025-08-21_17h31.58.870,GLINT,2024.2.4,Win32,61.34969325,,,,,,,,,,,,,,,,,,,,pineapple,inanim_natural,5,bear,lawnmower,butterfly,cow,pineapple,car,mushroom,binoculars,apple,5,1,1.408,,pineapple,inanim_natural,1,natural,0,15,15,8,1,,,,,,
650b03136ab3d4c832d98b71,2025-08-21_17h31.58.870,GLINT,2024.2.4,Win32,61.34969325,,,,,,,,,,,,,,,,,,,,apple,inanim_natural,4,snail,train,house,apple,cat,dog,corn,car,avocado,4,1,1.201,,apple,inanim_natural,1,natural,0,16,16,9,1,,,,,,
650b03136ab3d4c832d98b71,2025-08-21_17h31.58.870,GLINT,2024.2.4,Win32,61.34969325,,,,,,,,,,,,,,,,,,,,airplane,inanim_artificial,5,car,lawnmower,butterfly,snail,airplane,bread,cat,mushroom,pineapple,5,1,3.5513,,airplane,inanim_artificial,1,natural,0,17,17,12,1,,,,,,
650b03136ab3d4c832d98b71,2025-08-21_17h31.58.870,GLINT,2024.2.4,Win32,61.34969325,,,,,,,,,,,,,,,,,,,,binoculars,inanim_artificial,9,car,train,apple,mushroom,dog,avocado,snail,butterfly,binoculars,9,1,1.7191,,binoculars,inanim_artificial,1,natural,1,0,18,13,1,,,,,,
650b03136ab3d4c832d98b71,2025-08-21_17h31.58.870,GLINT,2024.2.4,Win32,61.34969325,,,,,,,,,,,,,,,,,,,,apple,inanim_natural,9,dog,train,lawnmower,car,avocado,cat,butterfly,bread,apple,9,1,2.5244,,apple,inanim_natural,1,natural,1,1,19,9,1,,,,,,
650b03136ab3d4c832d98b71,2025-08-21_17h31.58.870,GLINT,2024.2.4,Win32,61.34969325,,,,,,,,,,,,,,,,,,,,cat,anim_natural,6,butterfly,pineapple,bear,house,bread,cat,binoculars,car,mushroom,6,1,1.4256,,cat,anim_natural,1,natural,1,2,20,2,1,,,,,,
650b03136ab3d4c832d98b71,2025-08-21_17h31.58.870,GLINT,2024.2.4,Win32,61.34969325,,,,,,,,,,,,,,,,,,,,cow,anim_natural,3,car,bread,cow,avocado,dog,pineapple,butterfly,train,airplane,3,1,1.3192,,cow,anim_natural,1,natural,1,3,21,3,1,,,,,,
650b03136ab3d4c832d98b71,2025-08-21_17h31.58.870,GLINT,2024.2.4,Win32,61.34969325,,,,,,,,,,,,,,,,,,,,corn,inanim_natural,6,apple,airplane,bear,butterfly,snail,corn,binoculars,avocado,train,6,1,1.6502,,corn,inanim_natural,1,natural,1,4,22,10,1,,,,,,
650b03136ab3d4c832d98b71,2025-08-21_17h31.58.870,GLINT,2024.2.4,Win32,61.34969325,,,,,,,,,,,,,,,,,,,,pineapple,inanim_natural,7,dog,airplane,butterfly,cat,house,mushroom,pineapple,bread,train,7,1,1.8881,,pineapple,inanim_natural,1,natural,1,5,23,8,1,,,,,,
650b03136ab3d4c832d98b71,2025-08-21_17h31.58.870,GLINT,2024.2.4,Win32,61.34969325,,,,,,,,,,,,,,,,,,,,train,inanim_artificial,6,cat,mushroom,corn,airplane,butterfly,train,car,dog,bread,6,1,1.0919,,train,inanim_artificial,1,natural,1,6,24,17,1,,,,,,
650b03136ab3d4c832d98b71,2025-08-21_17h31.58.870,GLINT,2024.2.4,Win32,61.34969325,,,,,,,,,,,,,,,,,,,,lawnmower,inanim_artificial,2,cow,lawnmower,pineapple,corn,bread,butterfly,house,snail,binoculars,2,1,1.5591,,lawnmower,inanim_artificial,1,natural,1,7,25,16,1,,,,,,
650b03136ab3d4c832d98b71,2025-08-21_17h31.58.870,GLINT,2024.2.4,Win32,61.34969325,,,,,,,,,,,,,,,,,,,,dog,anim_natural,3,car,snail,dog,train,apple,mushroom,avocado,cat,airplane,3,1,2.302,,dog,anim_natural,1,natural,1,8,26,4,1,,,,,,
650b03136ab3d4c832d98b71,2025-08-21_17h31.58.870,GLINT,2024.2.4,Win32,61.34969325,,,,,,,,,,,,,,,,,,,,house,inanim_artificial,8,train,cow,corn,bread,cat,avocado,butterfly,house,binoculars,8,1,1.6117,,house,inanim_artificial,1,natural,1,9,27,15,1,,,,,,
650b03136ab3d4c832d98b71,2025-08-21_17h31.58.870,GLINT,2024.2.4,Win32,61.34969325,,,,,,,,,,,,,,,,,,,,car,inanim_artificial,4,bear,corn,apple,car,cat,binoculars,pineapple,airplane,cow,4,1,1.1425,,car,inanim_artificial,1,natural,1,10,28,14,1,,,,,,
650b03136ab3d4c832d98b71,2025-08-21_17h31.58.870,GLINT,2024.2.4,Win32,61.34969325,,,,,,,,,,,,,,,,,,,,butterfly,anim_natural,2,avocado,butterfly,corn,bread,cow,snail,lawnmower,airplane,house,2,1,1.4266,,butterfly,anim_natural,1,natural,1,11,29,1,1,,,,,,
650b03136ab3d4c832d98b71,2025-08-21_17h31.58.870,GLINT,2024.2.4,Win32,61.34969325,,,,,,,,,,,,,,,,,,,,avocado,inanim_natural,4,bear,car,airplane,avocado,pineapple,house,apple,snail,cat,4,1,1.2518,,avocado,inanim_natural,1,natural,1,12,30,11,1,,,,,,
650b03136ab3d4c832d98b71,2025-08-21_17h31.58.870,GLINT,2024.2.4,Win32,61.34969325,,,,,,,,,,,,,,,,,,,,mushroom,inanim_natural,8,snail,bread,binoculars,pineapple,airplane,cat,train,mushroom,bear,8,1,1.4895,,mushroom,inanim_natural,1,natural,1,13,31,7,1,,,,,,
650b03136ab3d4c832d98b71,2025-08-21_17h31.58.870,GLINT,2024.2.4,Win32,61.34969325,,,,,,,,,,,,,,,,,,,,bear,anim_natural,5,bread,airplane,pineapple,train,bear,snail,dog,car,corn,5,1,3.5368,,bear,anim_natural,1,natural,1,14,32,0,1,,,,,,
650b03136ab3d4c832d98b71,2025-08-21_17h31.58.870,GLINT,2024.2.4,Win32,61.34969325,,,,,,,,,,,,,,,,,,,,airplane,inanim_artificial,5,cat,butterfly,snail,pineapple,airplane,mushroom,lawnmower,car,apple,5,1,3.3825,,airplane,inanim_artificial,1,natural,1,15,33,12,1,,,,,,
650b03136ab3d4c832d98b71,2025-08-21_17h31.58.870,GLINT,2024.2.4,Win32,61.34969325,,,,,,,,,,,,,,,,,,,,bread,inanim_natural,4,airplane,apple,car,bread,bear,pineapple,cat,snail,train,4,1,2.5244,,bread,inanim_natural,1,natural,1,16,34,6,1,,,,,,
650b03136ab3d4c832d98b71,2025-08-21_17h31.58.870,GLINT,2024.2.4,Win32,61.34969325,,,,,,,,,,,,,,,,,,,,snail,anim_natural,3,avocado,airplane,snail,lawnmower,corn,cow,bread,dog,house,3,1,2.8034,,snail,anim_natural,1,natural,1,17,35,5,1,,,,,,
650b03136ab3d4c832d98b71,2025-08-21_17h31.58.870,GLINT,2024.2.4,Win32,61.34969325,,,,,,,,,,,,,,,,,,,,train,inanim_artificial,8,bread,snail,apple,butterfly,bear,car,airplane,train,pineapple,8,1,3.0289,,train,inanim_artificial,1,natural,2,0,36,17,1,,,,,,
650b03136ab3d4c832d98b71,2025-08-21_17h31.58.870,GLINT,2024.2.4,Win32,61.34969325,,,,,,,,,,,,,,,,,,,,butterfly,anim_natural,5,cow,bear,lawnmower,binoculars,butterfly,avocado,pineapple,corn,airplane,5,1,1.494,,butterfly,anim_natural,1,natural,2,1,37,1,1,,,,,,
650b03136ab3d4c832d98b71,2025-08-21_17h31.58.870,GLINT,2024.2.4,Win32,61.34969325,,,,,,,,,,,,,,,,,,,,binoculars,inanim_artificial,9,bear,butterfly,airplane,avocado,corn,dog,apple,car,binoculars,9,1,1.8013,,binoculars,inanim_artificial,1,natural,2,2,38,13,1,,,,,,
650b03136ab3d4c832d98b71,2025-08-21_17h31.58.870,GLINT,2024.2.4,Win32,61.34969325,,,,,,,,,,,,,,,,,,,,avocado,inanim_natural,3,train,cow,avocado,binoculars,bear,house,pineapple,bread,butterfly,3,1,1.7402,,avocado,inanim_natural,1,natural,2,3,39,11,1,,,,,,
650b03136ab3d4c832d98b71,2025-08-21_17h31.58.870,GLINT,2024.2.4,Win32,61.34969325,,,,,,,,,,,,,,,,,,,,dog,anim_natural,7,snail,avocado,lawnmower,cat,pineapple,train,dog,car,apple,7,1,1.5943,,dog,anim_natural,1,natural,2,4,40,4,1,,,,,,
650b03136ab3d4c832d98b71,2025-08-21_17h31.58.870,GLINT,2024.2.4,Win32,61.34969325,,,,,,,,,,,,,,,,,,,,car,inanim_artificial,7,cow,butterfly,pineapple,cat,lawnmower,mushroom,car,bread,train,7,1,2.3613,,car,inanim_artificial,1,natural,2,5,41,14,1,,,,,,
650b03136ab3d4c832d98b71,2025-08-21_17h31.58.870,GLINT,2024.2.4,Win32,61.34969325,,,,,,,,,,,,,,,,,,,,mushroom,inanim_natural,6,corn,apple,car,airplane,butterfly,mushroom,dog,bear,binoculars,6,1,1.0035,,mushroom,inanim_natural,1,natural,2,6,42,7,1,,,,,,
650b03136ab3d4c832d98b71,2025-08-21_17h31.58.870,GLINT,2024.2.4,Win32,61.34969325,,,,,,,,,,,,,,,,,,,,snail,anim_natural,7,avocado,bear,dog,pineapple,bread,lawnmower,snail,airplane,house,7,1,2.3832,,snail,anim_natural,1,natural,2,7,43,5,1,,,,,,
650b03136ab3d4c832d98b71,2025-08-21_17h31.58.870,GLINT,2024.2.4,Win32,61.34969325,,,,,,,,,,,,,,,,,,,,cow,anim_natural,1,cow,pineapple,avocado,car,lawnmower,dog,mushroom,cat,binoculars,1,1,2.9443,,cow,anim_natural,1,natural,2,8,44,3,1,,,,,,
650b03136ab3d4c832d98b71,2025-08-21_17h31.58.870,GLINT,2024.2.4,Win32,61.34969325,,,,,,,,,,,,,,,,,,,,bear,anim_natural,6,mushroom,dog,cow,binoculars,airplane,bear,pineapple,train,bread,6,1,1.6499,,bear,anim_natural,1,natural,2,9,45,0,1,,,,,,
650b03136ab3d4c832d98b71,2025-08-21_17h31.58.870,GLINT,2024.2.4,Win32,61.34969325,,,,,,,,,,,,,,,,,,,,corn,inanim_natural,6,train,binoculars,bear,snail,cow,corn,car,bread,pineapple,6,1,1.8314,,corn,inanim_natural,1,natural,2,10,46,10,1,,,,,,
650b03136ab3d4c832d98b71,2025-08-21_17h31.58.870,GLINT,2024.2.4,Win32,61.34969325,,,,,,,,,,,,,,,,,,,,airplane,inanim_artificial,2,car,airplane,mushroom,butterfly,cat,avocado,snail,apple,lawnmower,2,1,1.5945,,airplane,inanim_artificial,1,natural,2,11,47,12,1,,,,,,
650b03136ab3d4c832d98b71,2025-08-21_17h31.58.870,GLINT,2024.2.4,Win32,61.34969325,,,,,,,,,,,,,,,,,,,,pineapple,inanim_natural,7,dog,apple,train,house,snail,lawnmower,pineapple,cow,avocado,7,1,1.6877,,pineapple,inanim_natural,1,natural,2,12,48,8,1,,,,,,
650b03136ab3d4c832d98b71,2025-08-21_17h31.58.870,GLINT,2024.2.4,Win32,61.34969325,,,,,,,,,,,,,,,,,,,,bread,inanim_natural,4,avocado,pineapple,binoculars,bread,dog,cow,train,cat,car,4,1,3.403,,bread,inanim_natural,1,natural,2,13,49,6,1,,,,,,
650b03136ab3d4c832d98b71,2025-08-21_17h31.58.870,GLINT,2024.2.4,Win32,61.34969325,,,,,,,,,,,,,,,,,,,,apple,inanim_natural,2,avocado,apple,airplane,dog,butterfly,bread,car,house,cow,2,1,2.765,,apple,inanim_natural,1,natural,2,14,50,9,1,,,,,,
650b03136ab3d4c832d98b71,2025-08-21_17h31.58.870,GLINT,2024.2.4,Win32,61.34969325,,,,,,,,,,,,,,,,,,,,cat,anim_natural,1,cat,bear,avocado,apple,cow,lawnmower,bread,house,train,1,1,1.1003,,cat,anim_natural,1,natural,2,15,51,2,1,,,,,,
650b03136ab3d4c832d98b71,2025-08-21_17h31.58.870,GLINT,2024.2.4,Win32,61.34969325,,,,,,,,,,,,,,,,,,,,house,inanim_artificial,9,car,avocado,snail,corn,butterfly,lawnmower,cow,apple,house,9,1,1.9723,,house,inanim_artificial,1,natural,2,16,52,15,1,,,,,,
650b03136ab3d4c832d98b71,2025-08-21_17h31.58.870,GLINT,2024.2.4,Win32,61.34969325,,,,,,,,,,,,,,,,,,,,lawnmower,inanim_artificial,1,lawnmower,apple,corn,airplane,butterfly,dog,snail,house,mushroom,1,1,1.0912,,lawnmower,inanim_artificial,1,natural,2,17,53,16,1,,,,,,
650b03136ab3d4c832d98b71,2025-08-21_17h31.58.870,GLINT,2024.2.4,Win32,61.34969325,,,,,,,,,,,,,,,,,,,,dog,anim_natural,9,train,mushroom,bear,corn,binoculars,butterfly,apple,lawnmower,dog,9,1,1.7441,,dog,anim_natural,1,natural,3,0,54,4,1,,,,,,
650b03136ab3d4c832d98b71,2025-08-21_17h31.58.870,GLINT,2024.2.4,Win32,61.34969325,,,,,,,,,,,,,,,,,,,,mushroom,inanim_natural,1,mushroom,house,corn,binoculars,car,pineapple,bear,cat,cow,1,1,2.279,,mushroom,inanim_natural,1,natural,3,1,55,7,1,,,,,,
650b03136ab3d4c832d98b71,2025-08-21_17h31.58.870,GLINT,2024.2.4,Win32,61.34969325,,,,,,,,,,,,,,,,,,,,butterfly,anim_natural,4,dog,bear,binoculars,butterfly,lawnmower,airplane,apple,corn,bread,4,1,1.4432,,butterfly,anim_natural,1,natural,3,2,56,1,1,,,,,,
650b03136ab3d4c832d98b71,2025-08-21_17h31.58.870,GLINT,2024.2.4,Win32,61.34969325,,,,,,,,,,,,,,,,,,,,cat,anim_natural,7,mushroom,bear,avocado,butterfly,pineapple,car,cat,binoculars,train,7,1,2.2699,,cat,anim_natural,1,natural,3,3,57,2,1,,,,,,
650b03136ab3d4c832d98b71,2025-08-21_17h31.58.870,GLINT,2024.2.4,Win32,61.34969325,,,,,,,,,,,,,,,,,,,,pineapple,inanim_natural,5,train,binoculars,snail,bread,pineapple,apple,airplane,cow,cat,5,1,1.113,,pineapple,inanim_natural,1,natural,3,4,58,8,1,,,,,,
650b03136ab3d4c832d98b71,2025-08-21_17h31.58.870,GLINT,2024.2.4,Win32,61.34969325,,,,,,,,,,,,,,,,,,,,lawnmower,inanim_artificial,1,lawnmower,avocado,pineapple,snail,corn,cow,bear,airplane,train,1,1,0.9645,,lawnmower,inanim_artificial,1,natural,3,5,59,16,1,,,,,,
650b03136ab3d4c832d98b71,2025-08-21_17h31.58.870,GLINT,2024.2.4,Win32,61.34969325,,,,,,,,,,,,,,,,,,,,snail,anim_natural,2,binoculars,snail,train,corn,bread,dog,apple,cat,airplane,2,1,0.8781,,snail,anim_natural,1,natural,3,6,60,5,1,,,,,,
650b03136ab3d4c832d98b71,2025-08-21_17h31.58.870,GLINT,2024.2.4,Win32,61.34969325,,,,,,,,,,,,,,,,,,,,corn,inanim_natural,4,snail,lawnmower,binoculars,corn,butterfly,bear,pineapple,mushroom,train,4,1,1.8229,,corn,inanim_natural,1,natural,3,7,61,10,1,,,,,,
650b03136ab3d4c832d98b71,2025-08-21_17h31.58.870,GLINT,2024.2.4,Win32,61.34969325,,,,,,,,,,,,,,,,,,,,binoculars,inanim_artificial,4,snail,avocado,dog,binoculars,car,pineapple,apple,bear,airplane,4,1,1.5205,,binoculars,inanim_artificial,1,natural,3,8,62,13,1,,,,,,
650b03136ab3d4c832d98b71,2025-08-21_17h31.58.870,GLINT,2024.2.4,Win32,61.34969325,,,,,,,,,,,,,,,,,,,,avocado,inanim_natural,2,dog,avocado,mushroom,cow,cat,binoculars,lawnmower,house,corn,2,1,1.0064,,avocado,inanim_natural,1,natural,3,9,63,11,1,,,,,,
650b03136ab3d4c832d98b71,2025-08-21_17h31.58.870,GLINT,2024.2.4,Win32,61.34969325,,,,,,,,,,,,,,,,,,,,bread,inanim_natural,7,car,avocado,snail,binoculars,cow,airplane,bread,pineapple,dog,7,1,2.2126,,bread,inanim_natural,1,natural,3,10,64,6,1,,,,,,
650b03136ab3d4c832d98b71,2025-08-21_17h31.58.870,GLINT,2024.2.4,Win32,61.34969325,,,,,,,,,,,,,,,,,,,,cow,anim_natural,3,apple,binoculars,cow,dog,airplane,pineapple,corn,butterfly,train,3,1,1.0839,,cow,anim_natural,1,natural,3,11,65,3,1,,,,,,
650b03136ab3d4c832d98b71,2025-08-21_17h31.58.870,GLINT,2024.2.4,Win32,61.34969325,,,,,,,,,,,,,,,,,,,,house,inanim_artificial,3,lawnmower,mushroom,house,pineapple,bread,bear,train,cow,butterfly,3,1,3.645,,house,inanim_artificial,1,natural,3,12,66,15,1,,,,,,
650b03136ab3d4c832d98b71,2025-08-21_17h31.58.870,GLINT,2024.2.4,Win32,61.34969325,,,,,,,,,,,,,,,,,,,,bear,anim_natural,1,bear,pineapple,apple,binoculars,airplane,snail,train,avocado,butterfly,1,1,2.0837,,bear,anim_natural,1,natural,3,13,67,0,1,,,,,,
650b03136ab3d4c832d98b71,2025-08-21_17h31.58.870,GLINT,2024.2.4,Win32,61.34969325,,,,,,,,,,,,,,,,,,,,airplane,inanim_artificial,3,lawnmower,bear,airplane,car,avocado,butterfly,cat,bread,corn,3,1,1.9396,,airplane,inanim_artificial,1,natural,3,14,68,12,1,,,,,,
650b03136ab3d4c832d98b71,2025-08-21_17h31.58.870,GLINT,2024.2.4,Win32,61.34969325,,,,,,,,,,,,,,,,,,,,apple,inanim_natural,6,house,airplane,dog,avocado,train,apple,bread,butterfly,cow,6,1,2.3095,,apple,inanim_natural,1,natural,3,15,69,9,1,,,,,,
650b03136ab3d4c832d98b71,2025-08-21_17h31.58.870,GLINT,2024.2.4,Win32,61.34969325,,,,,,,,,,,,,,,,,,,,train,inanim_artificial,5,mushroom,butterfly,bear,apple,train,bread,house,dog,car,5,1,1.7624,,train,inanim_artificial,1,natural,3,16,70,17,1,,,,,,
650b03136ab3d4c832d98b71,2025-08-21_17h31.58.870,GLINT,2024.2.4,Win32,61.34969325,,,,,,,,,,,,,,,,,,,,car,inanim_artificial,2,binoculars,car,house,bread,bear,butterfly,dog,mushroom,apple,2,1,0.9613,,car,inanim_artificial,1,natural,3,17,71,14,1,,,,,,
650b03136ab3d4c832d98b71,2025-08-21_17h31.58.870,GLINT,2024.2.4,Win32,61.34969325,,,,,,,,,,,,,,,,,,,,,,,,,,,,,,,,,,,,,,,,,,,,,0,1,1,0,1,natural
650b03136ab3d4c832d98b71,2025-08-21_17h31.58.870,GLINT,2024.2.4,Win32,61.34969325,,,,,,,,,,,,,,,,,,,,dog,anim_natural,1,dog,cow,corn,airplane,mushroom,car,train,snail,apple,5,0,0.8482,,mushroom,inanim_natural,0,scrambled,0,0,0,4,1,,,,,,
650b03136ab3d4c832d98b71,2025-08-21_17h31.58.870,GLINT,2024.2.4,Win32,61.34969325,,,,,,,,,,,,,,,,,,,,butterfly,anim_natural,8,airplane,corn,bear,binoculars,snail,lawnmower,bread,butterfly,avocado,8,1,2.2315,,butterfly,anim_natural,1,scrambled,0,1,1,1,1,,,,,,
650b03136ab3d4c832d98b71,2025-08-21_17h31.58.870,GLINT,2024.2.4,Win32,61.34969325,,,,,,,,,,,,,,,,,,,,corn,inanim_natural,5,apple,snail,binoculars,car,corn,butterfly,train,cat,bread,5,1,2.1535,,corn,inanim_natural,1,scrambled,0,2,2,10,1,,,,,,
650b03136ab3d4c832d98b71,2025-08-21_17h31.58.870,GLINT,2024.2.4,Win32,61.34969325,,,,,,,,,,,,,,,,,,,,avocado,inanim_natural,3,pineapple,airplane,avocado,cow,cat,house,dog,lawnmower,corn,3,1,1.6187,,avocado,inanim_natural,1,scrambled,0,3,3,11,1,,,,,,
650b03136ab3d4c832d98b71,2025-08-21_17h31.58.870,GLINT,2024.2.4,Win32,61.34969325,,,,,,,,,,,,,,,,,,,,apple,inanim_natural,3,corn,house,apple,pineapple,cow,bear,dog,lawnmower,binoculars,3,1,1.1633,,apple,inanim_natural,1,scrambled,0,4,4,9,1,,,,,,
650b03136ab3d4c832d98b71,2025-08-21_17h31.58.870,GLINT,2024.2.4,Win32,61.34969325,,,,,,,,,,,,,,,,,,,,bread,inanim_natural,3,binoculars,cat,bread,pineapple,snail,house,cow,lawnmower,corn,3,1,1.3014,,bread,inanim_natural,1,scrambled,0,5,5,6,1,,,,,,
650b03136ab3d4c832d98b71,2025-08-21_17h31.58.870,GLINT,2024.2.4,Win32,61.34969325,,,,,,,,,,,,,,,,,,,,airplane,inanim_artificial,9,pineapple,dog,house,apple,snail,cow,car,corn,airplane,9,1,2.3538,,airplane,inanim_artificial,1,scrambled,0,6,6,12,1,,,,,,
650b03136ab3d4c832d98b71,2025-08-21_17h31.58.870,GLINT,2024.2.4,Win32,61.34969325,,,,,,,,,,,,,,,,,,,,pineapple,inanim_natural,8,avocado,bread,airplane,bear,dog,snail,car,pineapple,lawnmower,8,1,1.5289,,pineapple,inanim_natural,1,scrambled,0,7,7,8,1,,,,,,
650b03136ab3d4c832d98b71,2025-08-21_17h31.58.870,GLINT,2024.2.4,Win32,61.34969325,,,,,,,,,,,,,,,,,,,,cow,anim_natural,3,binoculars,apple,cow,dog,pineapple,bread,lawnmower,airplane,butterfly,9,0,2.6349,,butterfly,anim_natural,1,scrambled,0,8,8,3,1,,,,,,
650b03136ab3d4c832d98b71,2025-08-21_17h31.58.870,GLINT,2024.2.4,Win32,61.34969325,,,,,,,,,,,,,,,,,,,,bear,anim_natural,6,butterfly,house,mushroom,pineapple,corn,bear,cow,airplane,train,6,1,1.2798,,bear,anim_natural,1,scrambled,0,9,9,0,1,,,,,,
650b03136ab3d4c832d98b71,2025-08-21_17h31.58.870,GLINT,2024.2.4,Win32,61.34969325,,,,,,,,,,,,,,,,,,,,lawnmower,inanim_artificial,1,lawnmower,train,butterfly,cow,mushroom,avocado,apple,airplane,dog,1,1,2.0924,,lawnmower,inanim_artificial,1,scrambled,0,10,10,16,1,,,,,,
650b03136ab3d4c832d98b71,2025-08-21_17h31.58.870,GLINT,2024.2.4,Win32,61.34969325,,,,,,,,,,,,,,,,,,,,house,inanim_artificial,4,lawnmower,bread,train,house,snail,cat,apple,bear,avocado,4,1,1.4058,,house,inanim_artificial,1,scrambled,0,11,11,15,1,,,,,,
650b03136ab3d4c832d98b71,2025-08-21_17h31.58.870,GLINT,2024.2.4,Win32,61.34969325,,,,,,,,,,,,,,,,,,,,car,inanim_artificial,2,bread,car,train,bear,mushroom,lawnmower,butterfly,dog,pineapple,2,1,0.9932,,car,inanim_artificial,1,scrambled,0,12,12,14,1,,,,,,
650b03136ab3d4c832d98b71,2025-08-21_17h31.58.870,GLINT,2024.2.4,Win32,61.34969325,,,,,,,,,,,,,,,,,,,,snail,anim_natural,2,pineapple,snail,cat,lawnmower,binoculars,avocado,car,mushroom,bear,2,1,1.0264,,snail,anim_natural,1,scrambled,0,13,13,5,1,,,,,,
650b03136ab3d4c832d98b71,2025-08-21_17h31.58.870,GLINT,2024.2.4,Win32,61.34969325,,,,,,,,,,,,,,,,,,,,mushroom,inanim_natural,9,snail,bread,butterfly,house,lawnmower,car,cat,avocado,mushroom,9,1,1.3706,,mushroom,inanim_natural,1,scrambled,0,14,14,7,1,,,,,,
650b03136ab3d4c832d98b71,2025-08-21_17h31.58.870,GLINT,2024.2.4,Win32,61.34969325,,,,,,,,,,,,,,,,,,,,cat,anim_natural,8,bear,apple,cow,corn,binoculars,train,house,cat,bread,8,1,2.5249,,cat,anim_natural,1,scrambled,0,15,15,2,1,,,,,,
650b03136ab3d4c832d98b71,2025-08-21_17h31.58.870,GLINT,2024.2.4,Win32,61.34969325,,,,,,,,,,,,,,,,,,,,binoculars,inanim_artificial,6,apple,pineapple,dog,house,cow,binoculars,mushroom,airplane,butterfly,6,1,0.9974,,binoculars,inanim_artificial,1,scrambled,0,16,16,13,1,,,,,,
650b03136ab3d4c832d98b71,2025-08-21_17h31.58.870,GLINT,2024.2.4,Win32,61.34969325,,,,,,,,,,,,,,,,,,,,train,inanim_artificial,1,train,house,snail,cow,lawnmower,butterfly,avocado,mushroom,bread,8,0,3.5362,,mushroom,inanim_natural,0,scrambled,0,17,17,17,1,,,,,,
650b03136ab3d4c832d98b71,2025-08-21_17h31.58.870,GLINT,2024.2.4,Win32,61.34969325,,,,,,,,,,,,,,,,,,,,binoculars,inanim_artificial,4,dog,snail,car,binoculars,corn,bread,apple,cat,train,4,1,1.1386,,binoculars,inanim_artificial,1,scrambled,1,0,18,13,1,,,,,,
650b03136ab3d4c832d98b71,2025-08-21_17h31.58.870,GLINT,2024.2.4,Win32,61.34969325,,,,,,,,,,,,,,,,,,,,snail,anim_natural,9,lawnmower,bear,cat,house,binoculars,pineapple,apple,corn,snail,9,1,1.9237,,snail,anim_natural,1,scrambled,1,1,19,5,1,,,,,,
650b03136ab3d4c832d98b71,2025-08-21_17h31.58.870,GLINT,2024.2.4,Win32,61.34969325,,,,,,,,,,,,,,,,,,,,cat,anim_natural,8,lawnmower,butterfly,apple,binoculars,mushroom,bread,train,cat,bear,8,1,1.7227,,cat,anim_natural,1,scrambled,1,2,20,2,1,,,,,,
650b03136ab3d4c832d98b71,2025-08-21_17h31.58.870,GLINT,2024.2.4,Win32,61.34969325,,,,,,,,,,,,,,,,,,,,pineapple,inanim_natural,6,apple,airplane,binoculars,train,butterfly,pineapple,bear,snail,mushroom,6,1,1.0329,,pineapple,inanim_natural,1,scrambled,1,3,21,8,1,,,,,,
650b03136ab3d4c832d98b71,2025-08-21_17h31.58.870,GLINT,2024.2.4,Win32,61.34969325,,,,,,,,,,,,,,,,,,,,apple,inanim_natural,6,corn,butterfly,cat,house,train,apple,snail,pineapple,car,6,1,3.4916,,apple,inanim_natural,1,scrambled,1,4,22,9,1,,,,,,
650b03136ab3d4c832d98b71,2025-08-21_17h31.58.870,GLINT,2024.2.4,Win32,61.34969325,,,,,,,,,,,,,,,,,,,,house,inanim_artificial,1,house,avocado,pineapple,binoculars,butterfly,cow,apple,train,cat,1,1,2.3568,,house,inanim_artificial,1,scrambled,1,5,23,15,1,,,,,,
650b03136ab3d4c832d98b71,2025-08-21_17h31.58.870,GLINT,2024.2.4,Win32,61.34969325,,,,,,,,,,,,,,,,,,,,bear,anim_natural,4,apple,lawnmower,pineapple,bear,butterfly,car,airplane,corn,cow,4,1,2.2606,,bear,anim_natural,1,scrambled,1,6,24,0,1,,,,,,
650b03136ab3d4c832d98b71,2025-08-21_17h31.58.870,GLINT,2024.2.4,Win32,61.34969325,,,,,,,,,,,,,,,,,,,,train,inanim_artificial,5,house,bear,cow,bread,train,mushroom,car,pineapple,snail,5,1,1.2678,,train,inanim_artificial,1,scrambled,1,7,25,17,1,,,,,,
650b03136ab3d4c832d98b71,2025-08-21_17h31.58.870,GLINT,2024.2.4,Win32,61.34969325,,,,,,,,,,,,,,,,,,,,airplane,inanim_artificial,3,train,cow,airplane,pineapple,bread,corn,dog,house,butterfly,3,1,1.0701,,airplane,inanim_artificial,1,scrambled,1,8,26,12,1,,,,,,
650b03136ab3d4c832d98b71,2025-08-21_17h31.58.870,GLINT,2024.2.4,Win32,61.34969325,,,,,,,,,,,,,,,,,,,,lawnmower,inanim_artificial,9,apple,corn,car,pineapple,house,butterfly,snail,dog,lawnmower,9,1,1.3573,,lawnmower,inanim_artificial,1,scrambled,1,9,27,16,1,,,,,,
650b03136ab3d4c832d98b71,2025-08-21_17h31.58.870,GLINT,2024.2.4,Win32,61.34969325,,,,,,,,,,,,,,,,,,,,butterfly,anim_natural,7,cow,lawnmower,car,snail,mushroom,avocado,butterfly,apple,house,7,1,2.9749,,butterfly,anim_natural,1,scrambled,1,10,28,1,1,,,,,,
650b03136ab3d4c832d98b71,2025-08-21_17h31.58.870,GLINT,2024.2.4,Win32,61.34969325,,,,,,,,,,,,,,,,,,,,mushroom,inanim_natural,7,cow,train,house,airplane,bear,snail,mushroom,bread,apple,7,1,1.5529,,mushroom,inanim_natural,1,scrambled,1,11,29,7,1,,,,,,
650b03136ab3d4c832d98b71,2025-08-21_17h31.58.870,GLINT,2024.2.4,Win32,61.34969325,,,,,,,,,,,,,,,,,,,,car,inanim_artificial,5,lawnmower,avocado,airplane,apple,car,snail,cow,dog,bread,5,1,0.9771,,car,inanim_artificial,1,scrambled,1,12,30,14,1,,,,,,
650b03136ab3d4c832d98b71,2025-08-21_17h31.58.870,GLINT,2024.2.4,Win32,61.34969325,,,,,,,,,,,,,,,,,,,,avocado,inanim_natural,6,cat,dog,train,corn,binoculars,avocado,lawnmower,cow,pineapple,6,1,2.0062,,avocado,inanim_natural,1,scrambled,1,13,31,11,1,,,,,,
650b03136ab3d4c832d98b71,2025-08-21_17h31.58.870,GLINT,2024.2.4,Win32,61.34969325,,,,,,,,,,,,,,,,,,,,dog,anim_natural,2,avocado,dog,butterfly,train,lawnmower,cat,corn,apple,binoculars,2,1,1.2723,,dog,anim_natural,1,scrambled,1,14,32,4,1,,,,,,
650b03136ab3d4c832d98b71,2025-08-21_17h31.58.870,GLINT,2024.2.4,Win32,61.34969325,,,,,,,,,,,,,,,,,,,,cow,anim_natural,1,cow,bread,lawnmower,dog,corn,train,butterfly,avocado,airplane,1,1,1.7006,,cow,anim_natural,1,scrambled,1,15,33,3,1,,,,,,
650b03136ab3d4c832d98b71,2025-08-21_17h31.58.870,GLINT,2024.2.4,Win32,61.34969325,,,,,,,,,,,,,,,,,,,,bread,inanim_natural,4,binoculars,airplane,dog,bread,butterfly,avocado,pineapple,cow,house,4,1,1.1374,,bread,inanim_natural,1,scrambled,1,16,34,6,1,,,,,,
650b03136ab3d4c832d98b71,2025-08-21_17h31.58.870,GLINT,2024.2.4,Win32,61.34969325,,,,,,,,,,,,,,,,,,,,corn,inanim_natural,2,bear,corn,cat,train,dog,airplane,apple,avocado,car,2,1,1.1199,,corn,inanim_natural,1,scrambled,1,17,35,10,1,,,,,,
650b03136ab3d4c832d98b71,2025-08-21_17h31.58.870,GLINT,2024.2.4,Win32,61.34969325,,,,,,,,,,,,,,,,,,,,bear,anim_natural,1,bear,bread,train,butterfly,binoculars,corn,airplane,cow,mushroom,1,1,1.6007,,bear,anim_natural,1,scrambled,2,0,36,0,1,,,,,,
650b03136ab3d4c832d98b71,2025-08-21_17h31.58.870,GLINT,2024.2.4,Win32,61.34969325,,,,,,,,,,,,,,,,,,,,bread,inanim_natural,9,car,pineapple,house,train,snail,cat,cow,corn,bread,9,1,3.0004,,bread,inanim_natural,1,scrambled,2,1,37,6,1,,,,,,
650b03136ab3d4c832d98b71,2025-08-21_17h31.58.870,GLINT,2024.2.4,Win32,61.34969325,,,,,,,,,,,,,,,,,,,,cow,anim_natural,8,apple,binoculars,house,airplane,avocado,bear,mushroom,cow,butterfly,8,1,1.8551,,cow,anim_natural,1,scrambled,2,2,38,3,1,,,,,,
650b03136ab3d4c832d98b71,2025-08-21_17h31.58.870,GLINT,2024.2.4,Win32,61.34969325,,,,,,,,,,,,,,,,,,,,binoculars,inanim_artificial,6,avocado,snail,cat,mushroom,apple,binoculars,airplane,butterfly,lawnmower,6,1,0.913,,binoculars,inanim_artificial,1,scrambled,2,3,39,13,1,,,,,,
650b03136ab3d4c832d98b71,2025-08-21_17h31.58.870,GLINT,2024.2.4,Win32,61.34969325,,,,,,,,,,,,,,,,,,,,house,inanim_artificial,3,cow,bread,house,avocado,snail,binoculars,pineapple,airplane,bear,3,1,1.859,,house,inanim_artificial,1,scrambled,2,4,40,15,1,,,,,,
650b03136ab3d4c832d98b71,2025-08-21_17h31.58.870,GLINT,2024.2.4,Win32,61.34969325,,,,,,,,,,,,,,,,,,,,apple,inanim_natural,4,house,lawnmower,pineapple,apple,snail,butterfly,cow,mushroom,car,4,1,1.3106,,apple,inanim_natural,1,scrambled,2,5,41,9,1,,,,,,
650b03136ab3d4c832d98b71,2025-08-21_17h31.58.870,GLINT,2024.2.4,Win32,61.34969325,,,,,,,,,,,,,,,,,,,,airplane,inanim_artificial,3,pineapple,corn,airplane,mushroom,train,dog,snail,butterfly,car,3,1,2.2816,,airplane,inanim_artificial,1,scrambled,2,6,42,12,1,,,,,,
650b03136ab3d4c832d98b71,2025-08-21_17h31.58.870,GLINT,2024.2.4,Win32,61.34969325,,,,,,,,,,,,,,,,,,,,mushroom,inanim_natural,1,mushroom,cat,bread,snail,binoculars,apple,car,airplane,butterfly,1,1,1.9681,,mushroom,inanim_natural,1,scrambled,2,7,43,7,1,,,,,,
650b03136ab3d4c832d98b71,2025-08-21_17h31.58.870,GLINT,2024.2.4,Win32,61.34969325,,,,,,,,,,,,,,,,,,,,lawnmower,inanim_artificial,5,cat,bread,binoculars,mushroom,lawnmower,cow,pineapple,house,snail,5,1,0.7507,,lawnmower,inanim_artificial,1,scrambled,2,8,44,16,1,,,,,,
650b03136ab3d4c832d98b71,2025-08-21_17h31.58.870,GLINT,2024.2.4,Win32,61.34969325,,,,,,,,,,,,,,,,,,,,butterfly,anim_natural,4,snail,dog,bread,butterfly,pineapple,car,lawnmower,binoculars,corn,9,0,3.5179,,corn,inanim_natural,0,scrambled,2,9,45,1,1,,,,,,
650b03136ab3d4c832d98b71,2025-08-21_17h31.58.870,GLINT,2024.2.4,Win32,61.34969325,,,,,,,,,,,,,,,,,,,,train,inanim_artificial,2,lawnmower,train,mushroom,bread,snail,cat,house,cow,corn,1,0,2.055,,lawnmower,inanim_artificial,1,scrambled,2,10,46,17,1,,,,,,
650b03136ab3d4c832d98b71,2025-08-21_17h31.58.870,GLINT,2024.2.4,Win32,61.34969325,,,,,,,,,,,,,,,,,,,,avocado,inanim_natural,8,snail,car,lawnmower,pineapple,mushroom,airplane,bear,avocado,cow,4,0,3.219,,pineapple,inanim_natural,1,scrambled,2,11,47,11,1,,,,,,
650b03136ab3d4c832d98b71,2025-08-21_17h31.58.870,GLINT,2024.2.4,Win32,61.34969325,,,,,,,,,,,,,,,,,,,,car,inanim_artificial,9,corn,cat,mushroom,airplane,house,snail,dog,bread,car,9,1,2.4997,,car,inanim_artificial,1,scrambled,2,12,48,14,1,,,,,,
650b03136ab3d4c832d98b71,2025-08-21_17h31.58.870,GLINT,2024.2.4,Win32,61.34969325,,,,,,,,,,,,,,,,,,,,dog,anim_natural,4,pineapple,avocado,bear,dog,bread,car,butterfly,airplane,lawnmower,4,1,1.7709,,dog,anim_natural,1,scrambled,2,13,49,4,1,,,,,,
650b03136ab3d4c832d98b71,2025-08-21_17h31.58.870,GLINT,2024.2.4,Win32,61.34969325,,,,,,,,,,,,,,,,,,,,snail,anim_natural,7,car,bear,cow,avocado,corn,pineapple,snail,train,binoculars,7,1,2.6541,,snail,anim_natural,1,scrambled,2,14,50,5,1,,,,,,
650b03136ab3d4c832d98b71,2025-08-21_17h31.58.870,GLINT,2024.2.4,Win32,61.34969325,,,,,,,,,,,,,,,,,,,,pineapple,inanim_natural,1,pineapple,train,mushroom,cow,snail,corn,bear,car,binoculars,1,1,1.9673,,pineapple,inanim_natural,1,scrambled,2,15,51,8,1,,,,,,
650b03136ab3d4c832d98b71,2025-08-21_17h31.58.870,GLINT,2024.2.4,Win32,61.34969325,,,,,,,,,,,,,,,,,,,,corn,inanim_natural,8,butterfly,binoculars,bear,train,apple,cat,house,corn,bread,8,1,1.9011,,corn,inanim_natural,1,scrambled,2,16,52,10,1,,,,,,
650b03136ab3d4c832d98b71,2025-08-21_17h31.58.870,GLINT,2024.2.4,Win32,61.34969325,,,,,,,,,,,,,,,,,,,,cat,anim_natural,4,mushroom,bear,binoculars,cat,pineapple,airplane,car,snail,bread,4,1,4.5171,,cat,anim_natural,1,scrambled,2,17,53,2,1,,,,,,
650b03136ab3d4c832d98b71,2025-08-21_17h31.58.870,GLINT,2024.2.4,Win32,61.34969325,,,,,,,,,,,,,,,,,,,,cow,anim_natural,2,pineapple,cow,snail,lawnmower,car,bread,butterfly,airplane,avocado,5,0,2.7251,,car,inanim_artificial,0,scrambled,3,0,54,3,1,,,,,,
650b03136ab3d4c832d98b71,2025-08-21_17h31.58.870,GLINT,2024.2.4,Win32,61.34969325,,,,,,,,,,,,,,,,,,,,apple,inanim_natural,2,corn,apple,train,butterfly,lawnmower,binoculars,snail,pineapple,cow,2,1,1.2434,,apple,inanim_natural,1,scrambled,3,1,55,9,1,,,,,,
650b03136ab3d4c832d98b71,2025-08-21_17h31.58.870,GLINT,2024.2.4,Win32,61.34969325,,,,,,,,,,,,,,,,,,,,avocado,inanim_natural,1,avocado,cat,train,mushroom,dog,snail,lawnmower,apple,house,1,1,1.6988,,avocado,inanim_natural,1,scrambled,3,2,56,11,1,,,,,,
650b03136ab3d4c832d98b71,2025-08-21_17h31.58.870,GLINT,2024.2.4,Win32,61.34969325,,,,,,,,,,,,,,,,,,,,mushroom,inanim_natural,9,butterfly,train,snail,airplane,apple,cat,avocado,binoculars,mushroom,9,1,2.9185,,mushroom,inanim_natural,1,scrambled,3,3,57,7,1,,,,,,
650b03136ab3d4c832d98b71,2025-08-21_17h31.58.870,GLINT,2024.2.4,Win32,61.34969325,,,,,,,,,,,,,,,,,,,,dog,anim_natural,4,apple,pineapple,cow,dog,airplane,train,car,bear,corn,4,1,1.1511,,dog,anim_natural,1,scrambled,3,4,58,4,1,,,,,,
650b03136ab3d4c832d98b71,2025-08-21_17h31.58.870,GLINT,2024.2.4,Win32,61.34969325,,,,,,,,,,,,,,,,,,,,binoculars,inanim_artificial,2,pineapple,binoculars,apple,car,dog,airplane,corn,cow,butterfly,2,1,1.4523,,binoculars,inanim_artificial,1,scrambled,3,5,59,13,1,,,,,,
650b03136ab3d4c832d98b71,2025-08-21_17h31.58.870,GLINT,2024.2.4,Win32,61.34969325,,,,,,,,,,,,,,,,,,,,car,inanim_artificial,9,cow,bear,train,corn,mushroom,dog,bread,binoculars,car,9,1,2.3344,,car,inanim_artificial,1,scrambled,3,6,60,14,1,,,,,,
650b03136ab3d4c832d98b71,2025-08-21_17h31.58.870,GLINT,2024.2.4,Win32,61.34969325,,,,,,,,,,,,,,,,,,,,pineapple,inanim_natural,6,snail,dog,train,house,lawnmower,pineapple,apple,cow,bread,6,1,0.8948,,pineapple,inanim_natural,1,scrambled,3,7,61,8,1,,,,,,
650b03136ab3d4c832d98b71,2025-08-21_17h31.58.870,GLINT,2024.2.4,Win32,61.34969325,,,,,,,,,,,,,,,,,,,,train,inanim_artificial,4,apple,bear,airplane,train,butterfly,cow,avocado,bread,house,4,1,2.3394,,train,inanim_artificial,1,scrambled,3,8,62,17,1,,,,,,
650b03136ab3d4c832d98b71,2025-08-21_17h31.58.870,GLINT,2024.2.4,Win32,61.34969325,,,,,,,,,,,,,,,,,,,,snail,anim_natural,5,corn,cat,bear,pineapple,snail,lawnmower,bread,train,car,5,1,3.8768,,snail,anim_natural,1,scrambled,3,9,63,5,1,,,,,,
650b03136ab3d4c832d98b71,2025-08-21_17h31.58.870,GLINT,2024.2.4,Win32,61.34969325,,,,,,,,,,,,,,,,,,,,cat,anim_natural,1,cat,pineapple,butterfly,lawnmower,apple,dog,avocado,car,train,1,1,0.958,,cat,anim_natural,1,scrambled,3,10,64,2,1,,,,,,
650b03136ab3d4c832d98b71,2025-08-21_17h31.58.870,GLINT,2024.2.4,Win32,61.34969325,,,,,,,,,,,,,,,,,,,,butterfly,anim_natural,4,pineapple,airplane,snail,butterfly,house,train,cat,apple,mushroom,4,1,2.2202,,butterfly,anim_natural,1,scrambled,3,11,65,1,1,,,,,,
650b03136ab3d4c832d98b71,2025-08-21_17h31.58.870,GLINT,2024.2.4,Win32,61.34969325,,,,,,,,,,,,,,,,,,,,airplane,inanim_artificial,9,cow,train,cat,pineapple,mushroom,snail,apple,lawnmower,airplane,2,0,4.9517,,train,inanim_artificial,1,scrambled,3,12,66,12,1,,,,,,
650b03136ab3d4c832d98b71,2025-08-21_17h31.58.870,GLINT,2024.2.4,Win32,61.34969325,,,,,,,,,,,,,,,,,,,,bread,inanim_natural,5,butterfly,pineapple,bear,house,bread,avocado,airplane,lawnmower,snail,5,1,1.4733,,bread,inanim_natural,1,scrambled,3,13,67,6,1,,,,,,
650b03136ab3d4c832d98b71,2025-08-21_17h31.58.870,GLINT,2024.2.4,Win32,61.34969325,,,,,,,,,,,,,,,,,,,,corn,inanim_natural,3,snail,bear,corn,cat,bread,pineapple,house,lawnmower,binoculars,3,1,1.2902,,corn,inanim_natural,1,scrambled,3,14,68,10,1,,,,,,
650b03136ab3d4c832d98b71,2025-08-21_17h31.58.870,GLINT,2024.2.4,Win32,61.34969325,,,,,,,,,,,,,,,,,,,,lawnmower,inanim_artificial,9,cat,house,apple,butterfly,snail,bread,avocado,binoculars,lawnmower,9,1,1.1467,,lawnmower,inanim_artificial,1,scrambled,3,15,69,16,1,,,,,,
650b03136ab3d4c832d98b71,2025-08-21_17h31.58.870,GLINT,2024.2.4,Win32,61.34969325,,,,,,,,,,,,,,,,,,,,house,inanim_artificial,3,avocado,dog,house,butterfly,corn,apple,bear,lawnmower,airplane,3,1,2.0034,,house,inanim_artificial,1,scrambled,3,16,70,15,1,,,,,,
650b03136ab3d4c832d98b71,2025-08-21_17h31.58.870,GLINT,2024.2.4,Win32,61.34969325,,,,,,,,,,,,,,,,,,,,bear,anim_natural,9,apple,mushroom,house,airplane,butterfly,train,snail,pineapple,bear,9,1,1.9313,,bear,anim_natural,1,scrambled,3,17,71,0,1,,,,,,
650b03136ab3d4c832d98b71,2025-08-21_17h31.58.870,GLINT,2024.2.4,Win32,61.34969325,,,,,,,,,,,,,,,,,,,,,,,,,,,,,,,,,,,,,,,,,,,,,0,2,2,2,1,scrambled
