participant,date,expName,psychopyVersion,OS,frameRate,CorrectResponse,prac_prompt_1,prac_prompt_2,prac_prompt_3,prac_prompt_4,prac_prompt_5,prac_prompt_6,prac_prompt_7,prac_prompt_8,prac_prompt_9,prac_key_resp.keys,prac_key_resp.corr,prac_key_resp.rt,prac_key_resp.duration,prac_loop.thisRepN,prac_loop.thisTrialN,prac_loop.thisN,prac_loop.thisIndex,prac_loop.ran,object_class,object_category,corr_ans,prompt_1,prompt_2,prompt_3,prompt_4,prompt_5,prompt_6,prompt_7,prompt_8,prompt_9,key_resp.keys,key_resp.corr,key_resp.rt,key_resp.duration,response_label,response_animacy,corr_animacy,img_condition,test_loop.thisRepN,test_loop.thisTrialN,test_loop.thisN,test_loop.thisIndex,test_loop.ran,randomize_blocks.thisRepN,randomize_blocks.thisTrialN,randomize_blocks.thisN,randomize_blocks.thisIndex,randomize_blocks.ran,block_condition
65172c25c4118007d8a75184,2025-08-21_17h02.23.913,GLINT,2024.2.4,Win32,59.88023952,,,,,,,,,,,,,,,,,,,,,,,,,,,,,,,,,,,,,,,,,,,,,,,,,,
65172c25c4118007d8a75184,2025-08-21_17h02.23.913,GLINT,2024.2.4,Win32,59.88023952,,,,,,,,,,,,,,,,,,,,,,,,,,,,,,,,,,,,,,,,,,,,,,,,,,
65172c25c4118007d8a75184,2025-08-21_17h02.23.913,GLINT,2024.2.4,Win32,59.88023952,,,,,,,,,,,,,,,,,,,,,,,,,,,,,,,,,,,,,,,,,,,,,,,,,,
65172c25c4118007d8a75184,2025-08-21_17h02.23.913,GLINT,2024.2.4,Win32,59.88023952,3,leaf,tree,duck,truck,hand,bicycle,dog,flower,chair,3,1,1.6921,,0,0,0,1,1,duck,anim_natural,,,,,,,,,,,,,,,,,,,,,,,,,,,,,
65172c25c4118007d8a75184,2025-08-21_17h02.23.913,GLINT,2024.2.4,Win32,59.88023952,8,bicycle,chair,truck,duck,hand,tree,flower,dog,leaf,8,1,2.2806,,0,1,1,2,1,dog,anim_natural,,,,,,,,,,,,,,,,,,,,,,,,,,,,,
65172c25c4118007d8a75184,2025-08-21_17h02.23.913,GLINT,2024.2.4,Win32,59.88023952,4,leaf,bicycle,dog,flower,hand,tree,truck,chair,duck,4,1,3.1182,,0,2,2,3,1,flower,inanim_natural,,,,,,,,,,,,,,,,,,,,,,,,,,,,,
65172c25c4118007d8a75184,2025-08-21_17h02.23.913,GLINT,2024.2.4,Win32,59.88023952,8,chair,bicycle,dog,truck,duck,leaf,tree,hand,flower,8,1,4.294,,0,3,3,0,1,hand,anim_natural,,,,,,,,,,,,,,,,,,,,,,,,,,,,,
65172c25c4118007d8a75184,2025-08-21_17h02.23.913,GLINT,2024.2.4,Win32,59.88023952,5,duck,dog,truck,chair,tree,bicycle,hand,flower,leaf,9,0,3.3775,,0,4,4,4,1,tree,inanim_natural,,,,,,,,,,,,,,,,,,,,,,,,,,,,,
65172c25c4118007d8a75184,2025-08-21_17h02.23.913,GLINT,2024.2.4,Win32,59.88023952,,,,,,,,,,,,,,,,,,,,snail,anim_natural,1,snail,apple,mushroom,bear,house,car,pineapple,airplane,butterfly,1,1,1.5795,,snail,anim_natural,1,natural,0,0,0,5,1,,,,,,
65172c25c4118007d8a75184,2025-08-21_17h02.23.913,GLINT,2024.2.4,Win32,59.88023952,,,,,,,,,,,,,,,,,,,,apple,inanim_natural,7,corn,cat,bread,cow,train,dog,apple,binoculars,car,7,1,2.4173,,apple,inanim_natural,1,natural,0,1,1,9,1,,,,,,
65172c25c4118007d8a75184,2025-08-21_17h02.23.913,GLINT,2024.2.4,Win32,59.88023952,,,,,,,,,,,,,,,,,,,,lawnmower,inanim_artificial,6,bread,dog,bear,binoculars,mushroom,lawnmower,avocado,butterfly,airplane,,0,,,no response,no response,0,natural,0,2,2,16,1,,,,,,
65172c25c4118007d8a75184,2025-08-21_17h02.23.913,GLINT,2024.2.4,Win32,59.88023952,,,,,,,,,,,,,,,,,,,,house,inanim_artificial,7,dog,airplane,avocado,pineapple,cow,corn,house,butterfly,binoculars,7,1,2.0464,,house,inanim_artificial,1,natural,0,3,3,15,1,,,,,,
65172c25c4118007d8a75184,2025-08-21_17h02.23.913,GLINT,2024.2.4,Win32,59.88023952,,,,,,,,,,,,,,,,,,,,corn,inanim_natural,1,corn,cat,house,snail,mushroom,cow,car,avocado,train,1,1,1.735,,corn,inanim_natural,1,natural,0,4,4,10,1,,,,,,
65172c25c4118007d8a75184,2025-08-21_17h02.23.913,GLINT,2024.2.4,Win32,59.88023952,,,,,,,,,,,,,,,,,,,,butterfly,anim_natural,8,cat,corn,apple,car,house,train,bread,butterfly,snail,8,1,1.6026,,butterfly,anim_natural,1,natural,0,5,5,1,1,,,,,,
65172c25c4118007d8a75184,2025-08-21_17h02.23.913,GLINT,2024.2.4,Win32,59.88023952,,,,,,,,,,,,,,,,,,,,bear,anim_natural,1,bear,house,lawnmower,bread,dog,apple,snail,binoculars,pineapple,1,1,2.0422,,bear,anim_natural,1,natural,0,6,6,0,1,,,,,,
65172c25c4118007d8a75184,2025-08-21_17h02.23.913,GLINT,2024.2.4,Win32,59.88023952,,,,,,,,,,,,,,,,,,,,avocado,inanim_natural,6,bear,house,train,mushroom,cat,avocado,apple,airplane,cow,6,1,3.8423,,avocado,inanim_natural,1,natural,0,7,7,11,1,,,,,,
65172c25c4118007d8a75184,2025-08-21_17h02.23.913,GLINT,2024.2.4,Win32,59.88023952,,,,,,,,,,,,,,,,,,,,train,inanim_artificial,9,bear,binoculars,snail,pineapple,butterfly,car,corn,avocado,train,9,1,2.0875,,train,inanim_artificial,1,natural,0,8,8,17,1,,,,,,
65172c25c4118007d8a75184,2025-08-21_17h02.23.913,GLINT,2024.2.4,Win32,59.88023952,,,,,,,,,,,,,,,,,,,,car,inanim_artificial,7,mushroom,corn,bread,train,binoculars,snail,car,dog,cat,7,1,1.7979,,car,inanim_artificial,1,natural,0,9,9,14,1,,,,,,
65172c25c4118007d8a75184,2025-08-21_17h02.23.913,GLINT,2024.2.4,Win32,59.88023952,,,,,,,,,,,,,,,,,,,,airplane,inanim_artificial,4,house,corn,cat,airplane,mushroom,apple,car,bear,dog,4,1,2.4193,,airplane,inanim_artificial,1,natural,0,10,10,12,1,,,,,,
65172c25c4118007d8a75184,2025-08-21_17h02.23.913,GLINT,2024.2.4,Win32,59.88023952,,,,,,,,,,,,,,,,,,,,dog,anim_natural,3,avocado,airplane,dog,cow,cat,mushroom,binoculars,lawnmower,bread,3,1,1.8882,,dog,anim_natural,1,natural,0,11,11,4,1,,,,,,
65172c25c4118007d8a75184,2025-08-21_17h02.23.913,GLINT,2024.2.4,Win32,59.88023952,,,,,,,,,,,,,,,,,,,,bread,inanim_natural,6,avocado,train,corn,butterfly,dog,bread,house,binoculars,cow,6,1,2.9745,,bread,inanim_natural,1,natural,0,12,12,6,1,,,,,,
65172c25c4118007d8a75184,2025-08-21_17h02.23.913,GLINT,2024.2.4,Win32,59.88023952,,,,,,,,,,,,,,,,,,,,binoculars,inanim_artificial,2,bread,binoculars,cat,pineapple,dog,bear,car,train,mushroom,2,1,1.7221,,binoculars,inanim_artificial,1,natural,0,13,13,13,1,,,,,,
65172c25c4118007d8a75184,2025-08-21_17h02.23.913,GLINT,2024.2.4,Win32,59.88023952,,,,,,,,,,,,,,,,,,,,pineapple,inanim_natural,1,pineapple,cat,avocado,bear,binoculars,apple,car,butterfly,lawnmower,1,1,2.3892,,pineapple,inanim_natural,1,natural,0,14,14,8,1,,,,,,
65172c25c4118007d8a75184,2025-08-21_17h02.23.913,GLINT,2024.2.4,Win32,59.88023952,,,,,,,,,,,,,,,,,,,,mushroom,inanim_natural,3,dog,pineapple,mushroom,car,bread,snail,cat,train,house,3,1,1.5512,,mushroom,inanim_natural,1,natural,0,15,15,7,1,,,,,,
65172c25c4118007d8a75184,2025-08-21_17h02.23.913,GLINT,2024.2.4,Win32,59.88023952,,,,,,,,,,,,,,,,,,,,cat,anim_natural,8,mushroom,airplane,pineapple,binoculars,bear,snail,train,cat,apple,8,1,2.0622,,cat,anim_natural,1,natural,0,16,16,2,1,,,,,,
65172c25c4118007d8a75184,2025-08-21_17h02.23.913,GLINT,2024.2.4,Win32,59.88023952,,,,,,,,,,,,,,,,,,,,cow,anim_natural,2,house,cow,bread,apple,airplane,avocado,cat,car,dog,2,1,1.4703,,cow,anim_natural,1,natural,0,17,17,3,1,,,,,,
65172c25c4118007d8a75184,2025-08-21_17h02.23.913,GLINT,2024.2.4,Win32,59.88023952,,,,,,,,,,,,,,,,,,,,dog,anim_natural,6,cat,car,lawnmower,mushroom,bear,dog,pineapple,binoculars,bread,6,1,2.2994,,dog,anim_natural,1,natural,1,0,18,4,1,,,,,,
65172c25c4118007d8a75184,2025-08-21_17h02.23.913,GLINT,2024.2.4,Win32,59.88023952,,,,,,,,,,,,,,,,,,,,cat,anim_natural,9,airplane,avocado,dog,car,butterfly,corn,apple,binoculars,cat,9,1,2.2657,,cat,anim_natural,1,natural,1,1,19,2,1,,,,,,
65172c25c4118007d8a75184,2025-08-21_17h02.23.913,GLINT,2024.2.4,Win32,59.88023952,,,,,,,,,,,,,,,,,,,,airplane,inanim_artificial,5,butterfly,apple,pineapple,house,airplane,cat,train,avocado,snail,5,1,1.4653,,airplane,inanim_artificial,1,natural,1,2,20,12,1,,,,,,
65172c25c4118007d8a75184,2025-08-21_17h02.23.913,GLINT,2024.2.4,Win32,59.88023952,,,,,,,,,,,,,,,,,,,,cow,anim_natural,1,cow,car,snail,train,bread,airplane,pineapple,mushroom,butterfly,1,1,2.0244,,cow,anim_natural,1,natural,1,3,21,3,1,,,,,,
65172c25c4118007d8a75184,2025-08-21_17h02.23.913,GLINT,2024.2.4,Win32,59.88023952,,,,,,,,,,,,,,,,,,,,butterfly,anim_natural,4,train,avocado,mushroom,butterfly,binoculars,bear,apple,airplane,cow,4,1,1.6632,,butterfly,anim_natural,1,natural,1,4,22,1,1,,,,,,
65172c25c4118007d8a75184,2025-08-21_17h02.23.913,GLINT,2024.2.4,Win32,59.88023952,,,,,,,,,,,,,,,,,,,,bread,inanim_natural,1,bread,pineapple,dog,cat,mushroom,house,train,butterfly,airplane,2,0,2.9181,,pineapple,inanim_natural,1,natural,1,5,23,6,1,,,,,,
65172c25c4118007d8a75184,2025-08-21_17h02.23.913,GLINT,2024.2.4,Win32,59.88023952,,,,,,,,,,,,,,,,,,,,avocado,inanim_natural,2,cat,avocado,train,dog,apple,airplane,binoculars,mushroom,cow,2,1,1.3932,,avocado,inanim_natural,1,natural,1,6,24,11,1,,,,,,
65172c25c4118007d8a75184,2025-08-21_17h02.23.913,GLINT,2024.2.4,Win32,59.88023952,,,,,,,,,,,,,,,,,,,,snail,anim_natural,2,lawnmower,snail,car,avocado,bear,cat,binoculars,mushroom,apple,2,1,3.1928,,snail,anim_natural,1,natural,1,7,25,5,1,,,,,,
65172c25c4118007d8a75184,2025-08-21_17h02.23.913,GLINT,2024.2.4,Win32,59.88023952,,,,,,,,,,,,,,,,,,,,apple,inanim_natural,7,dog,binoculars,corn,house,bear,butterfly,apple,car,bread,7,1,2.6805,,apple,inanim_natural,1,natural,1,8,26,9,1,,,,,,
65172c25c4118007d8a75184,2025-08-21_17h02.23.913,GLINT,2024.2.4,Win32,59.88023952,,,,,,,,,,,,,,,,,,,,corn,inanim_natural,6,mushroom,house,cow,snail,car,corn,bear,airplane,pineapple,6,1,2.4582,,corn,inanim_natural,1,natural,1,9,27,10,1,,,,,,
65172c25c4118007d8a75184,2025-08-21_17h02.23.913,GLINT,2024.2.4,Win32,59.88023952,,,,,,,,,,,,,,,,,,,,house,inanim_artificial,1,house,lawnmower,train,cow,cat,pineapple,corn,mushroom,snail,4,0,2.6237,,cow,anim_natural,0,natural,1,10,28,15,1,,,,,,
65172c25c4118007d8a75184,2025-08-21_17h02.23.913,GLINT,2024.2.4,Win32,59.88023952,,,,,,,,,,,,,,,,,,,,lawnmower,inanim_artificial,5,binoculars,dog,bread,airplane,lawnmower,mushroom,cow,cat,apple,5,1,2.3269,,lawnmower,inanim_artificial,1,natural,1,11,29,16,1,,,,,,
65172c25c4118007d8a75184,2025-08-21_17h02.23.913,GLINT,2024.2.4,Win32,59.88023952,,,,,,,,,,,,,,,,,,,,binoculars,inanim_artificial,7,avocado,pineapple,apple,bear,airplane,train,binoculars,snail,butterfly,7,1,3.3226,,binoculars,inanim_artificial,1,natural,1,12,30,13,1,,,,,,
65172c25c4118007d8a75184,2025-08-21_17h02.23.913,GLINT,2024.2.4,Win32,59.88023952,,,,,,,,,,,,,,,,,,,,car,inanim_artificial,4,dog,mushroom,lawnmower,car,corn,snail,house,avocado,butterfly,4,1,1.2209,,car,inanim_artificial,1,natural,1,13,31,14,1,,,,,,
65172c25c4118007d8a75184,2025-08-21_17h02.23.913,GLINT,2024.2.4,Win32,59.88023952,,,,,,,,,,,,,,,,,,,,pineapple,inanim_natural,3,corn,car,pineapple,lawnmower,house,bread,butterfly,dog,snail,3,1,1.7463,,pineapple,inanim_natural,1,natural,1,14,32,8,1,,,,,,
65172c25c4118007d8a75184,2025-08-21_17h02.23.913,GLINT,2024.2.4,Win32,59.88023952,,,,,,,,,,,,,,,,,,,,train,inanim_artificial,6,binoculars,car,mushroom,bread,butterfly,train,apple,cow,snail,6,1,1.8536,,train,inanim_artificial,1,natural,1,15,33,17,1,,,,,,
65172c25c4118007d8a75184,2025-08-21_17h02.23.913,GLINT,2024.2.4,Win32,59.88023952,,,,,,,,,,,,,,,,,,,,mushroom,inanim_natural,7,lawnmower,house,cat,corn,bear,apple,mushroom,butterfly,car,7,1,1.6904,,mushroom,inanim_natural,1,natural,1,16,34,7,1,,,,,,
65172c25c4118007d8a75184,2025-08-21_17h02.23.913,GLINT,2024.2.4,Win32,59.88023952,,,,,,,,,,,,,,,,,,,,bear,anim_natural,5,apple,snail,cat,avocado,bear,mushroom,lawnmower,binoculars,house,5,1,1.3338,,bear,anim_natural,1,natural,1,17,35,0,1,,,,,,
65172c25c4118007d8a75184,2025-08-21_17h02.23.913,GLINT,2024.2.4,Win32,59.88023952,,,,,,,,,,,,,,,,,,,,binoculars,inanim_artificial,5,avocado,dog,cow,snail,binoculars,house,lawnmower,mushroom,bread,5,1,1.0338,,binoculars,inanim_artificial,1,natural,2,0,36,13,1,,,,,,
65172c25c4118007d8a75184,2025-08-21_17h02.23.913,GLINT,2024.2.4,Win32,59.88023952,,,,,,,,,,,,,,,,,,,,house,inanim_artificial,9,bear,binoculars,bread,corn,mushroom,cat,butterfly,car,house,9,1,1.7718,,house,inanim_artificial,1,natural,2,1,37,15,1,,,,,,
65172c25c4118007d8a75184,2025-08-21_17h02.23.913,GLINT,2024.2.4,Win32,59.88023952,,,,,,,,,,,,,,,,,,,,apple,inanim_natural,2,cow,apple,pineapple,cat,train,lawnmower,bear,car,avocado,2,1,2.0696,,apple,inanim_natural,1,natural,2,2,38,9,1,,,,,,
65172c25c4118007d8a75184,2025-08-21_17h02.23.913,GLINT,2024.2.4,Win32,59.88023952,,,,,,,,,,,,,,,,,,,,bread,inanim_natural,7,corn,lawnmower,snail,train,dog,bear,bread,house,apple,7,1,2.7574,,bread,inanim_natural,1,natural,2,3,39,6,1,,,,,,
65172c25c4118007d8a75184,2025-08-21_17h02.23.913,GLINT,2024.2.4,Win32,59.88023952,,,,,,,,,,,,,,,,,,,,mushroom,inanim_natural,1,mushroom,house,binoculars,dog,train,corn,snail,apple,cat,1,1,2.0507,,mushroom,inanim_natural,1,natural,2,4,40,7,1,,,,,,
65172c25c4118007d8a75184,2025-08-21_17h02.23.913,GLINT,2024.2.4,Win32,59.88023952,,,,,,,,,,,,,,,,,,,,train,inanim_artificial,7,avocado,bread,butterfly,snail,car,cow,train,lawnmower,mushroom,6,0,1.9714,,cow,anim_natural,0,natural,2,5,41,17,1,,,,,,
65172c25c4118007d8a75184,2025-08-21_17h02.23.913,GLINT,2024.2.4,Win32,59.88023952,,,,,,,,,,,,,,,,,,,,lawnmower,inanim_artificial,3,cow,butterfly,lawnmower,apple,house,train,snail,bread,pineapple,3,1,2.3969,,lawnmower,inanim_artificial,1,natural,2,6,42,16,1,,,,,,
65172c25c4118007d8a75184,2025-08-21_17h02.23.913,GLINT,2024.2.4,Win32,59.88023952,,,,,,,,,,,,,,,,,,,,bear,anim_natural,7,butterfly,corn,mushroom,lawnmower,bread,house,bear,dog,train,7,1,1.8521,,bear,anim_natural,1,natural,2,7,43,0,1,,,,,,
65172c25c4118007d8a75184,2025-08-21_17h02.23.913,GLINT,2024.2.4,Win32,59.88023952,,,,,,,,,,,,,,,,,,,,corn,inanim_natural,5,airplane,car,butterfly,mushroom,corn,cow,apple,train,bear,5,1,1.4445,,corn,inanim_natural,1,natural,2,8,44,10,1,,,,,,
65172c25c4118007d8a75184,2025-08-21_17h02.23.913,GLINT,2024.2.4,Win32,59.88023952,,,,,,,,,,,,,,,,,,,,butterfly,anim_natural,9,avocado,binoculars,corn,airplane,dog,car,apple,bear,butterfly,9,1,2.2306,,butterfly,anim_natural,1,natural,2,9,45,1,1,,,,,,
65172c25c4118007d8a75184,2025-08-21_17h02.23.913,GLINT,2024.2.4,Win32,59.88023952,,,,,,,,,,,,,,,,,,,,dog,anim_natural,1,dog,pineapple,lawnmower,corn,house,mushroom,car,cow,butterfly,1,1,1.982,,dog,anim_natural,1,natural,2,10,46,4,1,,,,,,
65172c25c4118007d8a75184,2025-08-21_17h02.23.913,GLINT,2024.2.4,Win32,59.88023952,,,,,,,,,,,,,,,,,,,,pineapple,inanim_natural,3,binoculars,snail,pineapple,bread,butterfly,avocado,house,airplane,cow,3,1,1.7812,,pineapple,inanim_natural,1,natural,2,11,47,8,1,,,,,,
65172c25c4118007d8a75184,2025-08-21_17h02.23.913,GLINT,2024.2.4,Win32,59.88023952,,,,,,,,,,,,,,,,,,,,cow,anim_natural,7,bread,snail,train,avocado,corn,car,cow,dog,lawnmower,7,1,2.4212,,cow,anim_natural,1,natural,2,12,48,3,1,,,,,,
65172c25c4118007d8a75184,2025-08-21_17h02.23.913,GLINT,2024.2.4,Win32,59.88023952,,,,,,,,,,,,,,,,,,,,airplane,inanim_artificial,2,apple,airplane,binoculars,avocado,corn,train,snail,butterfly,bear,2,1,1.6714,,airplane,inanim_artificial,1,natural,2,13,49,12,1,,,,,,
65172c25c4118007d8a75184,2025-08-21_17h02.23.913,GLINT,2024.2.4,Win32,59.88023952,,,,,,,,,,,,,,,,,,,,cat,anim_natural,8,train,dog,bear,binoculars,avocado,corn,airplane,cat,apple,8,1,1.9367,,cat,anim_natural,1,natural,2,14,50,2,1,,,,,,
65172c25c4118007d8a75184,2025-08-21_17h02.23.913,GLINT,2024.2.4,Win32,59.88023952,,,,,,,,,,,,,,,,,,,,avocado,inanim_natural,3,airplane,snail,avocado,car,train,bread,cow,pineapple,dog,3,1,2.6666,,avocado,inanim_natural,1,natural,2,15,51,11,1,,,,,,
65172c25c4118007d8a75184,2025-08-21_17h02.23.913,GLINT,2024.2.4,Win32,59.88023952,,,,,,,,,,,,,,,,,,,,car,inanim_artificial,6,cat,binoculars,dog,apple,cow,car,bread,airplane,avocado,6,1,2.96,,car,inanim_artificial,1,natural,2,16,52,14,1,,,,,,
65172c25c4118007d8a75184,2025-08-21_17h02.23.913,GLINT,2024.2.4,Win32,59.88023952,,,,,,,,,,,,,,,,,,,,snail,anim_natural,8,car,bread,cow,binoculars,train,bear,pineapple,snail,avocado,8,1,2.8926,,snail,anim_natural,1,natural,2,17,53,5,1,,,,,,
65172c25c4118007d8a75184,2025-08-21_17h02.23.913,GLINT,2024.2.4,Win32,59.88023952,,,,,,,,,,,,,,,,,,,,snail,anim_natural,4,avocado,pineapple,cow,snail,butterfly,train,apple,binoculars,house,4,1,1.5442,,snail,anim_natural,1,natural,3,0,54,5,1,,,,,,
65172c25c4118007d8a75184,2025-08-21_17h02.23.913,GLINT,2024.2.4,Win32,59.88023952,,,,,,,,,,,,,,,,,,,,train,inanim_artificial,4,cat,butterfly,car,train,bread,pineapple,cow,airplane,corn,4,1,1.7673,,train,inanim_artificial,1,natural,3,1,55,17,1,,,,,,
65172c25c4118007d8a75184,2025-08-21_17h02.23.913,GLINT,2024.2.4,Win32,59.88023952,,,,,,,,,,,,,,,,,,,,bear,anim_natural,3,pineapple,cat,bear,avocado,apple,house,car,butterfly,binoculars,3,1,2.281,,bear,anim_natural,1,natural,3,2,56,0,1,,,,,,
65172c25c4118007d8a75184,2025-08-21_17h02.23.913,GLINT,2024.2.4,Win32,59.88023952,,,,,,,,,,,,,,,,,,,,butterfly,anim_natural,9,apple,cat,airplane,bear,house,mushroom,corn,binoculars,butterfly,9,1,2.3502,,butterfly,anim_natural,1,natural,3,3,57,1,1,,,,,,
65172c25c4118007d8a75184,2025-08-21_17h02.23.913,GLINT,2024.2.4,Win32,59.88023952,,,,,,,,,,,,,,,,,,,,car,inanim_artificial,4,dog,binoculars,pineapple,car,avocado,cow,butterfly,apple,lawnmower,5,0,2.2648,,avocado,inanim_natural,0,natural,3,4,58,14,1,,,,,,
65172c25c4118007d8a75184,2025-08-21_17h02.23.913,GLINT,2024.2.4,Win32,59.88023952,,,,,,,,,,,,,,,,,,,,dog,anim_natural,8,house,apple,binoculars,snail,corn,pineapple,cat,dog,lawnmower,8,1,1.5821,,dog,anim_natural,1,natural,3,5,59,4,1,,,,,,
65172c25c4118007d8a75184,2025-08-21_17h02.23.913,GLINT,2024.2.4,Win32,59.88023952,,,,,,,,,,,,,,,,,,,,corn,inanim_natural,4,bread,snail,bear,corn,car,house,butterfly,train,mushroom,4,1,1.4292,,corn,inanim_natural,1,natural,3,6,60,10,1,,,,,,
65172c25c4118007d8a75184,2025-08-21_17h02.23.913,GLINT,2024.2.4,Win32,59.88023952,,,,,,,,,,,,,,,,,,,,bread,inanim_natural,5,cat,butterfly,bear,car,bread,binoculars,airplane,pineapple,corn,5,1,1.2931,,bread,inanim_natural,1,natural,3,7,61,6,1,,,,,,
65172c25c4118007d8a75184,2025-08-21_17h02.23.913,GLINT,2024.2.4,Win32,59.88023952,,,,,,,,,,,,,,,,,,,,lawnmower,inanim_artificial,7,cow,dog,pineapple,mushroom,house,corn,lawnmower,airplane,cat,7,1,1.9169,,lawnmower,inanim_artificial,1,natural,3,8,62,16,1,,,,,,
65172c25c4118007d8a75184,2025-08-21_17h02.23.913,GLINT,2024.2.4,Win32,59.88023952,,,,,,,,,,,,,,,,,,,,cow,anim_natural,5,butterfly,pineapple,bread,bear,cow,lawnmower,corn,airplane,binoculars,5,1,1.2382,,cow,anim_natural,1,natural,3,9,63,3,1,,,,,,
65172c25c4118007d8a75184,2025-08-21_17h02.23.913,GLINT,2024.2.4,Win32,59.88023952,,,,,,,,,,,,,,,,,,,,binoculars,inanim_artificial,9,bear,pineapple,cat,bread,avocado,train,butterfly,lawnmower,binoculars,9,1,3.0183,,binoculars,inanim_artificial,1,natural,3,10,64,13,1,,,,,,
65172c25c4118007d8a75184,2025-08-21_17h02.23.913,GLINT,2024.2.4,Win32,59.88023952,,,,,,,,,,,,,,,,,,,,cat,anim_natural,6,pineapple,house,binoculars,avocado,butterfly,cat,snail,car,bread,6,1,2.0337,,cat,anim_natural,1,natural,3,11,65,2,1,,,,,,
65172c25c4118007d8a75184,2025-08-21_17h02.23.913,GLINT,2024.2.4,Win32,59.88023952,,,,,,,,,,,,,,,,,,,,pineapple,inanim_natural,2,bear,pineapple,binoculars,dog,train,mushroom,house,corn,butterfly,2,1,2.2327,,pineapple,inanim_natural,1,natural,3,12,66,8,1,,,,,,
65172c25c4118007d8a75184,2025-08-21_17h02.23.913,GLINT,2024.2.4,Win32,59.88023952,,,,,,,,,,,,,,,,,,,,apple,inanim_natural,4,snail,cow,house,apple,dog,pineapple,binoculars,car,corn,4,1,1.8975,,apple,inanim_natural,1,natural,3,13,67,9,1,,,,,,
65172c25c4118007d8a75184,2025-08-21_17h02.23.913,GLINT,2024.2.4,Win32,59.88023952,,,,,,,,,,,,,,,,,,,,mushroom,inanim_natural,8,apple,pineapple,cat,lawnmower,airplane,butterfly,snail,mushroom,house,8,1,1.9358,,mushroom,inanim_natural,1,natural,3,14,68,7,1,,,,,,
65172c25c4118007d8a75184,2025-08-21_17h02.23.913,GLINT,2024.2.4,Win32,59.88023952,,,,,,,,,,,,,,,,,,,,avocado,inanim_natural,7,pineapple,cat,car,bread,dog,cow,avocado,binoculars,house,7,1,2.2959,,avocado,inanim_natural,1,natural,3,15,69,11,1,,,,,,
65172c25c4118007d8a75184,2025-08-21_17h02.23.913,GLINT,2024.2.4,Win32,59.88023952,,,,,,,,,,,,,,,,,,,,airplane,inanim_artificial,5,cow,house,cat,avocado,airplane,dog,pineapple,bread,train,5,1,1.3678,,airplane,inanim_artificial,1,natural,3,16,70,12,1,,,,,,
65172c25c4118007d8a75184,2025-08-21_17h02.23.913,GLINT,2024.2.4,Win32,59.88023952,,,,,,,,,,,,,,,,,,,,house,inanim_artificial,4,binoculars,dog,avocado,house,apple,lawnmower,pineapple,snail,cat,6,0,2.6513,,lawnmower,inanim_artificial,1,natural,3,17,71,15,1,,,,,,
65172c25c4118007d8a75184,2025-08-21_17h02.23.913,GLINT,2024.2.4,Win32,59.88023952,,,,,,,,,,,,,,,,,,,,,,,,,,,,,,,,,,,,,,,,,,,,,0,0,0,0,1,natural
65172c25c4118007d8a75184,2025-08-21_17h02.23.913,GLINT,2024.2.4,Win32,59.88023952,,,,,,,,,,,,,,,,,,,,cow,anim_natural,9,train,corn,house,car,bear,apple,cat,mushroom,cow,9,1,2.7696,,cow,anim_natural,1,line_drawing,0,0,0,3,1,,,,,,
65172c25c4118007d8a75184,2025-08-21_17h02.23.913,GLINT,2024.2.4,Win32,59.88023952,,,,,,,,,,,,,,,,,,,,corn,inanim_natural,6,car,lawnmower,apple,avocado,train,corn,dog,snail,cat,6,1,2.9289,,corn,inanim_natural,1,line_drawing,0,1,1,10,1,,,,,,
65172c25c4118007d8a75184,2025-08-21_17h02.23.913,GLINT,2024.2.4,Win32,59.88023952,,,,,,,,,,,,,,,,,,,,cat,anim_natural,3,apple,airplane,cat,corn,car,mushroom,dog,binoculars,snail,3,1,1.6291,,cat,anim_natural,1,line_drawing,0,2,2,2,1,,,,,,
65172c25c4118007d8a75184,2025-08-21_17h02.23.913,GLINT,2024.2.4,Win32,59.88023952,,,,,,,,,,,,,,,,,,,,snail,anim_natural,1,snail,binoculars,bread,train,lawnmower,butterfly,mushroom,corn,dog,9,0,3.3967,,dog,anim_natural,1,line_drawing,0,3,3,5,1,,,,,,
65172c25c4118007d8a75184,2025-08-21_17h02.23.913,GLINT,2024.2.4,Win32,59.88023952,,,,,,,,,,,,,,,,,,,,lawnmower,inanim_artificial,8,binoculars,airplane,cat,mushroom,apple,butterfly,corn,lawnmower,cow,8,1,1.8579,,lawnmower,inanim_artificial,1,line_drawing,0,4,4,16,1,,,,,,
65172c25c4118007d8a75184,2025-08-21_17h02.23.913,GLINT,2024.2.4,Win32,59.88023952,,,,,,,,,,,,,,,,,,,,avocado,inanim_natural,5,lawnmower,mushroom,train,cow,avocado,cat,dog,pineapple,house,5,1,2.0727,,avocado,inanim_natural,1,line_drawing,0,5,5,11,1,,,,,,
65172c25c4118007d8a75184,2025-08-21_17h02.23.913,GLINT,2024.2.4,Win32,59.88023952,,,,,,,,,,,,,,,,,,,,binoculars,inanim_artificial,7,lawnmower,apple,train,butterfly,bread,avocado,binoculars,cow,cat,7,1,2.3639,,binoculars,inanim_artificial,1,line_drawing,0,6,6,13,1,,,,,,
65172c25c4118007d8a75184,2025-08-21_17h02.23.913,GLINT,2024.2.4,Win32,59.88023952,,,,,,,,,,,,,,,,,,,,mushroom,inanim_natural,7,snail,pineapple,house,car,cow,butterfly,mushroom,bread,airplane,6,0,2.2573,,butterfly,anim_natural,0,line_drawing,0,7,7,7,1,,,,,,
65172c25c4118007d8a75184,2025-08-21_17h02.23.913,GLINT,2024.2.4,Win32,59.88023952,,,,,,,,,,,,,,,,,,,,airplane,inanim_artificial,5,snail,dog,corn,train,airplane,pineapple,cow,mushroom,car,2,0,2.3425,,dog,anim_natural,0,line_drawing,0,8,8,12,1,,,,,,
65172c25c4118007d8a75184,2025-08-21_17h02.23.913,GLINT,2024.2.4,Win32,59.88023952,,,,,,,,,,,,,,,,,,,,pineapple,inanim_natural,7,lawnmower,bread,airplane,bear,cat,house,pineapple,cow,avocado,7,1,1.5269,,pineapple,inanim_natural,1,line_drawing,0,9,9,8,1,,,,,,
65172c25c4118007d8a75184,2025-08-21_17h02.23.913,GLINT,2024.2.4,Win32,59.88023952,,,,,,,,,,,,,,,,,,,,apple,inanim_natural,4,snail,car,corn,apple,bear,train,binoculars,cat,bread,9,0,2.6345,,bread,inanim_natural,1,line_drawing,0,10,10,9,1,,,,,,
65172c25c4118007d8a75184,2025-08-21_17h02.23.913,GLINT,2024.2.4,Win32,59.88023952,,,,,,,,,,,,,,,,,,,,bread,inanim_natural,8,binoculars,dog,cow,mushroom,airplane,house,butterfly,bread,apple,8,1,2.1692,,bread,inanim_natural,1,line_drawing,0,11,11,6,1,,,,,,
65172c25c4118007d8a75184,2025-08-21_17h02.23.913,GLINT,2024.2.4,Win32,59.88023952,,,,,,,,,,,,,,,,,,,,butterfly,anim_natural,4,mushroom,house,binoculars,butterfly,bear,apple,bread,lawnmower,cow,4,1,1.9599,,butterfly,anim_natural,1,line_drawing,0,12,12,1,1,,,,,,
65172c25c4118007d8a75184,2025-08-21_17h02.23.913,GLINT,2024.2.4,Win32,59.88023952,,,,,,,,,,,,,,,,,,,,house,inanim_artificial,5,bread,butterfly,lawnmower,cow,house,car,bear,avocado,corn,5,1,1.2184,,house,inanim_artificial,1,line_drawing,0,13,13,15,1,,,,,,
65172c25c4118007d8a75184,2025-08-21_17h02.23.913,GLINT,2024.2.4,Win32,59.88023952,,,,,,,,,,,,,,,,,,,,dog,anim_natural,9,avocado,binoculars,bread,corn,airplane,butterfly,lawnmower,bear,dog,9,1,1.7624,,dog,anim_natural,1,line_drawing,0,14,14,4,1,,,,,,
65172c25c4118007d8a75184,2025-08-21_17h02.23.913,GLINT,2024.2.4,Win32,59.88023952,,,,,,,,,,,,,,,,,,,,bear,anim_natural,1,bear,mushroom,avocado,apple,binoculars,butterfly,house,car,dog,1,1,2.1226,,bear,anim_natural,1,line_drawing,0,15,15,0,1,,,,,,
65172c25c4118007d8a75184,2025-08-21_17h02.23.913,GLINT,2024.2.4,Win32,59.88023952,,,,,,,,,,,,,,,,,,,,train,inanim_artificial,7,cat,airplane,house,cow,pineapple,dog,train,corn,mushroom,3,0,2.1214,,house,inanim_artificial,1,line_drawing,0,16,16,17,1,,,,,,
65172c25c4118007d8a75184,2025-08-21_17h02.23.913,GLINT,2024.2.4,Win32,59.88023952,,,,,,,,,,,,,,,,,,,,car,inanim_artificial,1,car,bread,butterfly,bear,house,mushroom,corn,cow,lawnmower,1,1,1.5952,,car,inanim_artificial,1,line_drawing,0,17,17,14,1,,,,,,
65172c25c4118007d8a75184,2025-08-21_17h02.23.913,GLINT,2024.2.4,Win32,59.88023952,,,,,,,,,,,,,,,,,,,,bear,anim_natural,6,snail,bread,pineapple,car,house,bear,binoculars,cat,avocado,6,1,2.296,,bear,anim_natural,1,line_drawing,1,0,18,0,1,,,,,,
65172c25c4118007d8a75184,2025-08-21_17h02.23.913,GLINT,2024.2.4,Win32,59.88023952,,,,,,,,,,,,,,,,,,,,butterfly,anim_natural,8,mushroom,cat,avocado,airplane,train,bread,binoculars,butterfly,bear,8,1,1.5711,,butterfly,anim_natural,1,line_drawing,1,1,19,1,1,,,,,,
65172c25c4118007d8a75184,2025-08-21_17h02.23.913,GLINT,2024.2.4,Win32,59.88023952,,,,,,,,,,,,,,,,,,,,lawnmower,inanim_artificial,1,lawnmower,avocado,butterfly,snail,cow,bread,house,binoculars,apple,1,1,1.5296,,lawnmower,inanim_artificial,1,line_drawing,1,2,20,16,1,,,,,,
65172c25c4118007d8a75184,2025-08-21_17h02.23.913,GLINT,2024.2.4,Win32,59.88023952,,,,,,,,,,,,,,,,,,,,house,inanim_artificial,6,lawnmower,pineapple,snail,apple,bread,house,dog,bear,airplane,6,1,1.8037,,house,inanim_artificial,1,line_drawing,1,3,21,15,1,,,,,,
65172c25c4118007d8a75184,2025-08-21_17h02.23.913,GLINT,2024.2.4,Win32,59.88023952,,,,,,,,,,,,,,,,,,,,cow,anim_natural,2,corn,cow,lawnmower,car,binoculars,snail,butterfly,bread,apple,2,1,1.7657,,cow,anim_natural,1,line_drawing,1,4,22,3,1,,,,,,
65172c25c4118007d8a75184,2025-08-21_17h02.23.913,GLINT,2024.2.4,Win32,59.88023952,,,,,,,,,,,,,,,,,,,,apple,inanim_natural,2,mushroom,apple,lawnmower,snail,car,house,butterfly,bear,avocado,4,0,2.5324,,snail,anim_natural,0,line_drawing,1,5,23,9,1,,,,,,
65172c25c4118007d8a75184,2025-08-21_17h02.23.913,GLINT,2024.2.4,Win32,59.88023952,,,,,,,,,,,,,,,,,,,,bread,inanim_natural,6,corn,cow,avocado,snail,binoculars,bread,train,butterfly,car,6,1,2.5753,,bread,inanim_natural,1,line_drawing,1,6,24,6,1,,,,,,
65172c25c4118007d8a75184,2025-08-21_17h02.23.913,GLINT,2024.2.4,Win32,59.88023952,,,,,,,,,,,,,,,,,,,,corn,inanim_natural,4,bear,binoculars,lawnmower,corn,mushroom,train,snail,avocado,cat,4,1,1.2725,,corn,inanim_natural,1,line_drawing,1,7,25,10,1,,,,,,
65172c25c4118007d8a75184,2025-08-21_17h02.23.913,GLINT,2024.2.4,Win32,59.88023952,,,,,,,,,,,,,,,,,,,,car,inanim_artificial,8,dog,binoculars,bear,pineapple,avocado,train,apple,car,butterfly,8,1,1.7831,,car,inanim_artificial,1,line_drawing,1,8,26,14,1,,,,,,
65172c25c4118007d8a75184,2025-08-21_17h02.23.913,GLINT,2024.2.4,Win32,59.88023952,,,,,,,,,,,,,,,,,,,,pineapple,inanim_natural,8,lawnmower,mushroom,cow,avocado,airplane,butterfly,house,pineapple,dog,8,1,2.3565,,pineapple,inanim_natural,1,line_drawing,1,9,27,8,1,,,,,,
65172c25c4118007d8a75184,2025-08-21_17h02.23.913,GLINT,2024.2.4,Win32,59.88023952,,,,,,,,,,,,,,,,,,,,airplane,inanim_artificial,8,bread,car,dog,mushroom,binoculars,bear,cat,airplane,corn,8,1,2.5962,,airplane,inanim_artificial,1,line_drawing,1,10,28,12,1,,,,,,
65172c25c4118007d8a75184,2025-08-21_17h02.23.913,GLINT,2024.2.4,Win32,59.88023952,,,,,,,,,,,,,,,,,,,,train,inanim_artificial,2,pineapple,train,dog,lawnmower,car,bear,avocado,cat,corn,2,1,3.0578,,train,inanim_artificial,1,line_drawing,1,11,29,17,1,,,,,,
65172c25c4118007d8a75184,2025-08-21_17h02.23.913,GLINT,2024.2.4,Win32,59.88023952,,,,,,,,,,,,,,,,,,,,cat,anim_natural,9,bread,train,apple,lawnmower,airplane,snail,cow,corn,cat,9,1,1.7893,,cat,anim_natural,1,line_drawing,1,12,30,2,1,,,,,,
65172c25c4118007d8a75184,2025-08-21_17h02.23.913,GLINT,2024.2.4,Win32,59.88023952,,,,,,,,,,,,,,,,,,,,mushroom,inanim_natural,8,train,car,butterfly,dog,binoculars,corn,cow,mushroom,apple,8,1,2.1146,,mushroom,inanim_natural,1,line_drawing,1,13,31,7,1,,,,,,
65172c25c4118007d8a75184,2025-08-21_17h02.23.913,GLINT,2024.2.4,Win32,59.88023952,,,,,,,,,,,,,,,,,,,,snail,anim_natural,1,snail,train,binoculars,corn,house,butterfly,pineapple,apple,cat,1,1,2.7787,,snail,anim_natural,1,line_drawing,1,14,32,5,1,,,,,,
65172c25c4118007d8a75184,2025-08-21_17h02.23.913,GLINT,2024.2.4,Win32,59.88023952,,,,,,,,,,,,,,,,,,,,dog,anim_natural,6,house,pineapple,cat,bear,binoculars,dog,avocado,car,apple,6,1,2.1787,,dog,anim_natural,1,line_drawing,1,15,33,4,1,,,,,,
65172c25c4118007d8a75184,2025-08-21_17h02.23.913,GLINT,2024.2.4,Win32,59.88023952,,,,,,,,,,,,,,,,,,,,avocado,inanim_natural,9,corn,car,cow,mushroom,snail,binoculars,bear,lawnmower,avocado,9,1,1.7497,,avocado,inanim_natural,1,line_drawing,1,16,34,11,1,,,,,,
65172c25c4118007d8a75184,2025-08-21_17h02.23.913,GLINT,2024.2.4,Win32,59.88023952,,,,,,,,,,,,,,,,,,,,binoculars,inanim_artificial,4,pineapple,corn,butterfly,binoculars,bread,lawnmower,car,cat,cow,4,1,1.1669,,binoculars,inanim_artificial,1,line_drawing,1,17,35,13,1,,,,,,
65172c25c4118007d8a75184,2025-08-21_17h02.23.913,GLINT,2024.2.4,Win32,59.88023952,,,,,,,,,,,,,,,,,,,,dog,anim_natural,3,binoculars,bear,dog,corn,butterfly,avocado,car,mushroom,lawnmower,3,1,1.7646,,dog,anim_natural,1,line_drawing,2,0,36,4,1,,,,,,
65172c25c4118007d8a75184,2025-08-21_17h02.23.913,GLINT,2024.2.4,Win32,59.88023952,,,,,,,,,,,,,,,,,,,,corn,inanim_natural,6,house,lawnmower,butterfly,binoculars,apple,corn,dog,pineapple,cow,6,1,1.8262,,corn,inanim_natural,1,line_drawing,2,1,37,10,1,,,,,,
65172c25c4118007d8a75184,2025-08-21_17h02.23.913,GLINT,2024.2.4,Win32,59.88023952,,,,,,,,,,,,,,,,,,,,lawnmower,inanim_artificial,5,binoculars,airplane,pineapple,butterfly,lawnmower,dog,apple,cow,bread,5,1,1.4138,,lawnmower,inanim_artificial,1,line_drawing,2,2,38,16,1,,,,,,
65172c25c4118007d8a75184,2025-08-21_17h02.23.913,GLINT,2024.2.4,Win32,59.88023952,,,,,,,,,,,,,,,,,,,,train,inanim_artificial,7,corn,cow,airplane,butterfly,pineapple,lawnmower,train,apple,cat,3,0,2.6402,,airplane,inanim_artificial,1,line_drawing,2,3,39,17,1,,,,,,
65172c25c4118007d8a75184,2025-08-21_17h02.23.913,GLINT,2024.2.4,Win32,59.88023952,,,,,,,,,,,,,,,,,,,,house,inanim_artificial,9,corn,dog,apple,train,airplane,cat,avocado,cow,house,9,1,2.9509,,house,inanim_artificial,1,line_drawing,2,4,40,15,1,,,,,,
65172c25c4118007d8a75184,2025-08-21_17h02.23.913,GLINT,2024.2.4,Win32,59.88023952,,,,,,,,,,,,,,,,,,,,butterfly,anim_natural,4,train,mushroom,cat,butterfly,house,cow,binoculars,apple,avocado,4,1,1.8855,,butterfly,anim_natural,1,line_drawing,2,5,41,1,1,,,,,,
65172c25c4118007d8a75184,2025-08-21_17h02.23.913,GLINT,2024.2.4,Win32,59.88023952,,,,,,,,,,,,,,,,,,,,bread,inanim_natural,1,bread,dog,butterfly,avocado,lawnmower,airplane,snail,train,apple,6,0,1.722,,airplane,inanim_artificial,0,line_drawing,2,6,42,6,1,,,,,,
65172c25c4118007d8a75184,2025-08-21_17h02.23.913,GLINT,2024.2.4,Win32,59.88023952,,,,,,,,,,,,,,,,,,,,airplane,inanim_artificial,7,snail,dog,pineapple,lawnmower,binoculars,cat,airplane,apple,bread,7,1,2.6733,,airplane,inanim_artificial,1,line_drawing,2,7,43,12,1,,,,,,
65172c25c4118007d8a75184,2025-08-21_17h02.23.913,GLINT,2024.2.4,Win32,59.88023952,,,,,,,,,,,,,,,,,,,,binoculars,inanim_artificial,5,cow,airplane,snail,house,binoculars,avocado,mushroom,corn,bear,5,1,1.8431,,binoculars,inanim_artificial,1,line_drawing,2,8,44,13,1,,,,,,
65172c25c4118007d8a75184,2025-08-21_17h02.23.913,GLINT,2024.2.4,Win32,59.88023952,,,,,,,,,,,,,,,,,,,,apple,inanim_natural,8,airplane,lawnmower,dog,car,cow,bread,corn,apple,bear,8,1,3.4111,,apple,inanim_natural,1,line_drawing,2,9,45,9,1,,,,,,
65172c25c4118007d8a75184,2025-08-21_17h02.23.913,GLINT,2024.2.4,Win32,59.88023952,,,,,,,,,,,,,,,,,,,,mushroom,inanim_natural,8,train,house,avocado,bear,dog,binoculars,apple,mushroom,cat,5,0,1.2269,,dog,anim_natural,0,line_drawing,2,10,46,7,1,,,,,,
65172c25c4118007d8a75184,2025-08-21_17h02.23.913,GLINT,2024.2.4,Win32,59.88023952,,,,,,,,,,,,,,,,,,,,bear,anim_natural,8,cow,car,apple,house,mushroom,train,avocado,bear,dog,8,1,2.4675,,bear,anim_natural,1,line_drawing,2,11,47,0,1,,,,,,
65172c25c4118007d8a75184,2025-08-21_17h02.23.913,GLINT,2024.2.4,Win32,59.88023952,,,,,,,,,,,,,,,,,,,,avocado,inanim_natural,7,pineapple,corn,cat,train,airplane,lawnmower,avocado,snail,cow,7,1,2.1492,,avocado,inanim_natural,1,line_drawing,2,12,48,11,1,,,,,,
65172c25c4118007d8a75184,2025-08-21_17h02.23.913,GLINT,2024.2.4,Win32,59.88023952,,,,,,,,,,,,,,,,,,,,cat,anim_natural,7,dog,lawnmower,train,binoculars,pineapple,corn,cat,bear,avocado,7,1,1.8352,,cat,anim_natural,1,line_drawing,2,13,49,2,1,,,,,,
65172c25c4118007d8a75184,2025-08-21_17h02.23.913,GLINT,2024.2.4,Win32,59.88023952,,,,,,,,,,,,,,,,,,,,snail,anim_natural,8,avocado,cat,binoculars,house,dog,airplane,mushroom,snail,pineapple,7,0,2.3897,,mushroom,inanim_natural,0,line_drawing,2,14,50,5,1,,,,,,
65172c25c4118007d8a75184,2025-08-21_17h02.23.913,GLINT,2024.2.4,Win32,59.88023952,,,,,,,,,,,,,,,,,,,,cow,anim_natural,7,binoculars,avocado,butterfly,apple,bear,lawnmower,cow,pineapple,airplane,7,1,3.7132,,cow,anim_natural,1,line_drawing,2,15,51,3,1,,,,,,
65172c25c4118007d8a75184,2025-08-21_17h02.23.913,GLINT,2024.2.4,Win32,59.88023952,,,,,,,,,,,,,,,,,,,,pineapple,inanim_natural,3,airplane,bread,pineapple,butterfly,apple,cow,house,car,bear,3,1,1.8315,,pineapple,inanim_natural,1,line_drawing,2,16,52,8,1,,,,,,
65172c25c4118007d8a75184,2025-08-21_17h02.23.913,GLINT,2024.2.4,Win32,59.88023952,,,,,,,,,,,,,,,,,,,,car,inanim_artificial,8,pineapple,bread,airplane,mushroom,dog,house,snail,car,cow,8,1,1.7375,,car,inanim_artificial,1,line_drawing,2,17,53,14,1,,,,,,
65172c25c4118007d8a75184,2025-08-21_17h02.23.913,GLINT,2024.2.4,Win32,59.88023952,,,,,,,,,,,,,,,,,,,,cat,anim_natural,2,apple,cat,airplane,binoculars,snail,pineapple,lawnmower,butterfly,avocado,2,1,1.4909,,cat,anim_natural,1,line_drawing,3,0,54,2,1,,,,,,
65172c25c4118007d8a75184,2025-08-21_17h02.23.913,GLINT,2024.2.4,Win32,59.88023952,,,,,,,,,,,,,,,,,,,,apple,inanim_natural,7,dog,airplane,house,pineapple,train,butterfly,apple,snail,corn,7,1,2.5667,,apple,inanim_natural,1,line_drawing,3,1,55,9,1,,,,,,
65172c25c4118007d8a75184,2025-08-21_17h02.23.913,GLINT,2024.2.4,Win32,59.88023952,,,,,,,,,,,,,,,,,,,,airplane,inanim_artificial,6,lawnmower,house,butterfly,bread,dog,airplane,corn,bear,apple,4,0,2.0496,,bread,inanim_natural,0,line_drawing,3,2,56,12,1,,,,,,
65172c25c4118007d8a75184,2025-08-21_17h02.23.913,GLINT,2024.2.4,Win32,59.88023952,,,,,,,,,,,,,,,,,,,,lawnmower,inanim_artificial,4,train,butterfly,cat,lawnmower,car,bread,bear,pineapple,corn,4,1,1.5232,,lawnmower,inanim_artificial,1,line_drawing,3,3,57,16,1,,,,,,
65172c25c4118007d8a75184,2025-08-21_17h02.23.913,GLINT,2024.2.4,Win32,59.88023952,,,,,,,,,,,,,,,,,,,,cow,anim_natural,5,mushroom,binoculars,avocado,dog,cow,apple,car,train,snail,5,1,1.1376,,cow,anim_natural,1,line_drawing,3,4,58,3,1,,,,,,
65172c25c4118007d8a75184,2025-08-21_17h02.23.913,GLINT,2024.2.4,Win32,59.88023952,,,,,,,,,,,,,,,,,,,,bear,anim_natural,5,binoculars,mushroom,bread,pineapple,bear,snail,train,cow,lawnmower,5,1,1.3474,,bear,anim_natural,1,line_drawing,3,5,59,0,1,,,,,,
65172c25c4118007d8a75184,2025-08-21_17h02.23.913,GLINT,2024.2.4,Win32,59.88023952,,,,,,,,,,,,,,,,,,,,corn,inanim_natural,1,corn,snail,pineapple,apple,lawnmower,dog,butterfly,car,house,1,1,2.0037,,corn,inanim_natural,1,line_drawing,3,6,60,10,1,,,,,,
65172c25c4118007d8a75184,2025-08-21_17h02.23.913,GLINT,2024.2.4,Win32,59.88023952,,,,,,,,,,,,,,,,,,,,house,inanim_artificial,7,snail,avocado,car,apple,dog,pineapple,house,binoculars,bear,7,1,1.8029,,house,inanim_artificial,1,line_drawing,3,7,61,15,1,,,,,,
65172c25c4118007d8a75184,2025-08-21_17h02.23.913,GLINT,2024.2.4,Win32,59.88023952,,,,,,,,,,,,,,,,,,,,avocado,inanim_natural,9,airplane,bread,pineapple,dog,train,house,cat,snail,avocado,9,1,2.7013,,avocado,inanim_natural,1,line_drawing,3,8,62,11,1,,,,,,
65172c25c4118007d8a75184,2025-08-21_17h02.23.913,GLINT,2024.2.4,Win32,59.88023952,,,,,,,,,,,,,,,,,,,,butterfly,anim_natural,7,cow,binoculars,train,dog,bread,corn,butterfly,pineapple,lawnmower,7,1,1.5039,,butterfly,anim_natural,1,line_drawing,3,9,63,1,1,,,,,,
65172c25c4118007d8a75184,2025-08-21_17h02.23.913,GLINT,2024.2.4,Win32,59.88023952,,,,,,,,,,,,,,,,,,,,bread,inanim_natural,1,bread,butterfly,airplane,binoculars,cow,car,avocado,pineapple,dog,8,0,1.9229,,pineapple,inanim_natural,1,line_drawing,3,10,64,6,1,,,,,,
65172c25c4118007d8a75184,2025-08-21_17h02.23.913,GLINT,2024.2.4,Win32,59.88023952,,,,,,,,,,,,,,,,,,,,mushroom,inanim_natural,6,bear,train,lawnmower,apple,cow,mushroom,snail,corn,binoculars,6,1,1.8729,,mushroom,inanim_natural,1,line_drawing,3,11,65,7,1,,,,,,
65172c25c4118007d8a75184,2025-08-21_17h02.23.913,GLINT,2024.2.4,Win32,59.88023952,,,,,,,,,,,,,,,,,,,,train,inanim_artificial,4,pineapple,mushroom,bread,train,cow,bear,snail,airplane,house,8,0,1.9457,,airplane,inanim_artificial,1,line_drawing,3,12,66,17,1,,,,,,
65172c25c4118007d8a75184,2025-08-21_17h02.23.913,GLINT,2024.2.4,Win32,59.88023952,,,,,,,,,,,,,,,,,,,,pineapple,inanim_natural,9,train,corn,binoculars,cat,butterfly,avocado,cow,house,pineapple,9,1,1.8763,,pineapple,inanim_natural,1,line_drawing,3,13,67,8,1,,,,,,
65172c25c4118007d8a75184,2025-08-21_17h02.23.913,GLINT,2024.2.4,Win32,59.88023952,,,,,,,,,,,,,,,,,,,,dog,anim_natural,7,mushroom,corn,train,avocado,cat,airplane,dog,butterfly,house,7,1,1.8641,,dog,anim_natural,1,line_drawing,3,14,68,4,1,,,,,,
65172c25c4118007d8a75184,2025-08-21_17h02.23.913,GLINT,2024.2.4,Win32,59.88023952,,,,,,,,,,,,,,,,,,,,car,inanim_artificial,8,snail,avocado,airplane,cow,corn,butterfly,apple,car,lawnmower,8,1,3.1046,,car,inanim_artificial,1,line_drawing,3,15,69,14,1,,,,,,
65172c25c4118007d8a75184,2025-08-21_17h02.23.913,GLINT,2024.2.4,Win32,59.88023952,,,,,,,,,,,,,,,,,,,,binoculars,inanim_artificial,3,corn,airplane,binoculars,pineapple,snail,mushroom,butterfly,bear,lawnmower,3,1,2.3686,,binoculars,inanim_artificial,1,line_drawing,3,16,70,13,1,,,,,,
65172c25c4118007d8a75184,2025-08-21_17h02.23.913,GLINT,2024.2.4,Win32,59.88023952,,,,,,,,,,,,,,,,,,,,snail,anim_natural,6,lawnmower,binoculars,corn,butterfly,dog,snail,car,mushroom,bread,8,0,1.6642,,mushroom,inanim_natural,0,line_drawing,3,17,71,5,1,,,,,,
65172c25c4118007d8a75184,2025-08-21_17h02.23.913,GLINT,2024.2.4,Win32,59.88023952,,,,,,,,,,,,,,,,,,,,,,,,,,,,,,,,,,,,,,,,,,,,,0,1,1,1,1,line_drawing
65172c25c4118007d8a75184,2025-08-21_17h02.23.913,GLINT,2024.2.4,Win32,59.88023952,,,,,,,,,,,,,,,,,,,,pineapple,inanim_natural,1,pineapple,snail,cat,lawnmower,car,apple,dog,mushroom,binoculars,1,1,2.0382,,pineapple,inanim_natural,1,scrambled,0,0,0,8,1,,,,,,
65172c25c4118007d8a75184,2025-08-21_17h02.23.913,GLINT,2024.2.4,Win32,59.88023952,,,,,,,,,,,,,,,,,,,,avocado,inanim_natural,9,train,cow,airplane,apple,house,dog,bread,cat,avocado,,0,,,no response,no response,0,scrambled,0,1,1,11,1,,,,,,
65172c25c4118007d8a75184,2025-08-21_17h02.23.913,GLINT,2024.2.4,Win32,59.88023952,,,,,,,,,,,,,,,,,,,,bear,anim_natural,9,bread,cow,mushroom,butterfly,car,lawnmower,pineapple,binoculars,bear,5,0,2.9321,,car,inanim_artificial,0,scrambled,0,2,2,0,1,,,,,,
65172c25c4118007d8a75184,2025-08-21_17h02.23.913,GLINT,2024.2.4,Win32,59.88023952,,,,,,,,,,,,,,,,,,,,bread,inanim_natural,4,train,pineapple,cow,bread,snail,cat,house,corn,airplane,4,1,1.2911,,bread,inanim_natural,1,scrambled,0,3,3,6,1,,,,,,
65172c25c4118007d8a75184,2025-08-21_17h02.23.913,GLINT,2024.2.4,Win32,59.88023952,,,,,,,,,,,,,,,,,,,,butterfly,anim_natural,1,butterfly,cat,cow,apple,airplane,avocado,binoculars,mushroom,car,1,1,2.6825,,butterfly,anim_natural,1,scrambled,0,4,4,1,1,,,,,,
65172c25c4118007d8a75184,2025-08-21_17h02.23.913,GLINT,2024.2.4,Win32,59.88023952,,,,,,,,,,,,,,,,,,,,mushroom,inanim_natural,7,train,apple,corn,bear,lawnmower,dog,mushroom,house,cow,7,1,1.6514,,mushroom,inanim_natural,1,scrambled,0,5,5,7,1,,,,,,
65172c25c4118007d8a75184,2025-08-21_17h02.23.913,GLINT,2024.2.4,Win32,59.88023952,,,,,,,,,,,,,,,,,,,,house,inanim_artificial,3,binoculars,snail,house,lawnmower,cow,apple,bread,butterfly,corn,3,1,1.8976,,house,inanim_artificial,1,scrambled,0,6,6,15,1,,,,,,
65172c25c4118007d8a75184,2025-08-21_17h02.23.913,GLINT,2024.2.4,Win32,59.88023952,,,,,,,,,,,,,,,,,,,,corn,inanim_natural,8,house,avocado,snail,binoculars,mushroom,butterfly,bear,corn,airplane,8,1,1.8197,,corn,inanim_natural,1,scrambled,0,7,7,10,1,,,,,,
65172c25c4118007d8a75184,2025-08-21_17h02.23.913,GLINT,2024.2.4,Win32,59.88023952,,,,,,,,,,,,,,,,,,,,car,inanim_artificial,4,bear,lawnmower,cow,car,snail,pineapple,corn,airplane,avocado,4,1,1.4652,,car,inanim_artificial,1,scrambled,0,8,8,14,1,,,,,,
65172c25c4118007d8a75184,2025-08-21_17h02.23.913,GLINT,2024.2.4,Win32,59.88023952,,,,,,,,,,,,,,,,,,,,cow,anim_natural,6,binoculars,lawnmower,avocado,house,cat,cow,corn,butterfly,mushroom,6,1,1.9358,,cow,anim_natural,1,scrambled,0,9,9,3,1,,,,,,
65172c25c4118007d8a75184,2025-08-21_17h02.23.913,GLINT,2024.2.4,Win32,59.88023952,,,,,,,,,,,,,,,,,,,,cat,anim_natural,5,mushroom,dog,avocado,car,cat,apple,cow,house,lawnmower,4,0,1.2163,,car,inanim_artificial,0,scrambled,0,10,10,2,1,,,,,,
65172c25c4118007d8a75184,2025-08-21_17h02.23.913,GLINT,2024.2.4,Win32,59.88023952,,,,,,,,,,,,,,,,,,,,binoculars,inanim_artificial,8,train,bread,apple,mushroom,car,snail,dog,binoculars,butterfly,8,1,1.7167,,binoculars,inanim_artificial,1,scrambled,0,11,11,13,1,,,,,,
65172c25c4118007d8a75184,2025-08-21_17h02.23.913,GLINT,2024.2.4,Win32,59.88023952,,,,,,,,,,,,,,,,,,,,dog,anim_natural,4,bear,cow,apple,dog,house,bread,train,lawnmower,pineapple,4,1,1.3754,,dog,anim_natural,1,scrambled,0,12,12,4,1,,,,,,
65172c25c4118007d8a75184,2025-08-21_17h02.23.913,GLINT,2024.2.4,Win32,59.88023952,,,,,,,,,,,,,,,,,,,,lawnmower,inanim_artificial,7,house,apple,snail,bread,pineapple,dog,lawnmower,cow,airplane,7,1,2.1659,,lawnmower,inanim_artificial,1,scrambled,0,13,13,16,1,,,,,,
65172c25c4118007d8a75184,2025-08-21_17h02.23.913,GLINT,2024.2.4,Win32,59.88023952,,,,,,,,,,,,,,,,,,,,snail,anim_natural,2,apple,snail,house,cow,butterfly,binoculars,lawnmower,mushroom,pineapple,2,1,1.5341,,snail,anim_natural,1,scrambled,0,14,14,5,1,,,,,,
65172c25c4118007d8a75184,2025-08-21_17h02.23.913,GLINT,2024.2.4,Win32,59.88023952,,,,,,,,,,,,,,,,,,,,train,inanim_artificial,5,snail,cow,binoculars,car,train,avocado,bread,dog,mushroom,4,0,1.3634,,car,inanim_artificial,1,scrambled,0,15,15,17,1,,,,,,
65172c25c4118007d8a75184,2025-08-21_17h02.23.913,GLINT,2024.2.4,Win32,59.88023952,,,,,,,,,,,,,,,,,,,,apple,inanim_natural,7,car,corn,avocado,airplane,dog,house,apple,cat,bear,7,1,1.857,,apple,inanim_natural,1,scrambled,0,16,16,9,1,,,,,,
65172c25c4118007d8a75184,2025-08-21_17h02.23.913,GLINT,2024.2.4,Win32,59.88023952,,,,,,,,,,,,,,,,,,,,airplane,inanim_artificial,1,airplane,cow,cat,dog,apple,car,pineapple,corn,lawnmower,8,0,2.417,,corn,inanim_natural,0,scrambled,0,17,17,12,1,,,,,,
65172c25c4118007d8a75184,2025-08-21_17h02.23.913,GLINT,2024.2.4,Win32,59.88023952,,,,,,,,,,,,,,,,,,,,airplane,inanim_artificial,6,lawnmower,house,cat,bear,snail,airplane,pineapple,apple,corn,6,1,2.1204,,airplane,inanim_artificial,1,scrambled,1,0,18,12,1,,,,,,
65172c25c4118007d8a75184,2025-08-21_17h02.23.913,GLINT,2024.2.4,Win32,59.88023952,,,,,,,,,,,,,,,,,,,,apple,inanim_natural,1,apple,car,butterfly,dog,bear,train,airplane,avocado,corn,6,0,2.8063,,train,inanim_artificial,0,scrambled,1,1,19,9,1,,,,,,
65172c25c4118007d8a75184,2025-08-21_17h02.23.913,GLINT,2024.2.4,Win32,59.88023952,,,,,,,,,,,,,,,,,,,,cow,anim_natural,1,cow,mushroom,corn,binoculars,lawnmower,snail,airplane,pineapple,cat,1,1,1.525,,cow,anim_natural,1,scrambled,1,2,20,3,1,,,,,,
65172c25c4118007d8a75184,2025-08-21_17h02.23.913,GLINT,2024.2.4,Win32,59.88023952,,,,,,,,,,,,,,,,,,,,lawnmower,inanim_artificial,4,cow,car,snail,lawnmower,binoculars,bear,corn,mushroom,bread,2,0,1.5354,,car,inanim_artificial,1,scrambled,1,3,21,16,1,,,,,,
65172c25c4118007d8a75184,2025-08-21_17h02.23.913,GLINT,2024.2.4,Win32,59.88023952,,,,,,,,,,,,,,,,,,,,bread,inanim_natural,5,cow,corn,binoculars,butterfly,bread,house,pineapple,snail,lawnmower,5,1,1.2161,,bread,inanim_natural,1,scrambled,1,4,22,6,1,,,,,,
65172c25c4118007d8a75184,2025-08-21_17h02.23.913,GLINT,2024.2.4,Win32,59.88023952,,,,,,,,,,,,,,,,,,,,train,inanim_artificial,1,train,house,cow,pineapple,cat,mushroom,apple,car,bear,8,0,1.9755,,car,inanim_artificial,1,scrambled,1,5,23,17,1,,,,,,
65172c25c4118007d8a75184,2025-08-21_17h02.23.913,GLINT,2024.2.4,Win32,59.88023952,,,,,,,,,,,,,,,,,,,,bear,anim_natural,6,car,house,mushroom,lawnmower,cat,bear,pineapple,avocado,cow,5,0,3.1148,,cat,anim_natural,1,scrambled,1,6,24,0,1,,,,,,
65172c25c4118007d8a75184,2025-08-21_17h02.23.913,GLINT,2024.2.4,Win32,59.88023952,,,,,,,,,,,,,,,,,,,,car,inanim_artificial,6,train,apple,cat,lawnmower,pineapple,car,mushroom,butterfly,bear,6,1,2.3638,,car,inanim_artificial,1,scrambled,1,7,25,14,1,,,,,,
65172c25c4118007d8a75184,2025-08-21_17h02.23.913,GLINT,2024.2.4,Win32,59.88023952,,,,,,,,,,,,,,,,,,,,house,inanim_artificial,8,mushroom,snail,binoculars,corn,apple,airplane,cat,house,dog,8,1,2.1259,,house,inanim_artificial,1,scrambled,1,8,26,15,1,,,,,,
65172c25c4118007d8a75184,2025-08-21_17h02.23.913,GLINT,2024.2.4,Win32,59.88023952,,,,,,,,,,,,,,,,,,,,dog,anim_natural,1,dog,bread,apple,lawnmower,bear,cat,pineapple,airplane,train,1,1,1.4727,,dog,anim_natural,1,scrambled,1,9,27,4,1,,,,,,
65172c25c4118007d8a75184,2025-08-21_17h02.23.913,GLINT,2024.2.4,Win32,59.88023952,,,,,,,,,,,,,,,,,,,,butterfly,anim_natural,6,house,bread,car,apple,cat,butterfly,bear,binoculars,mushroom,9,0,2.3112,,mushroom,inanim_natural,0,scrambled,1,10,28,1,1,,,,,,
65172c25c4118007d8a75184,2025-08-21_17h02.23.913,GLINT,2024.2.4,Win32,59.88023952,,,,,,,,,,,,,,,,,,,,corn,inanim_natural,8,cow,house,dog,apple,car,lawnmower,bear,corn,mushroom,8,1,1.9037,,corn,inanim_natural,1,scrambled,1,11,29,10,1,,,,,,
65172c25c4118007d8a75184,2025-08-21_17h02.23.913,GLINT,2024.2.4,Win32,59.88023952,,,,,,,,,,,,,,,,,,,,snail,anim_natural,6,dog,house,airplane,cat,corn,snail,mushroom,train,pineapple,6,1,2.4852,,snail,anim_natural,1,scrambled,1,12,30,5,1,,,,,,
65172c25c4118007d8a75184,2025-08-21_17h02.23.913,GLINT,2024.2.4,Win32,59.88023952,,,,,,,,,,,,,,,,,,,,mushroom,inanim_natural,1,mushroom,avocado,car,butterfly,house,bear,apple,cat,train,1,1,1.379,,mushroom,inanim_natural,1,scrambled,1,13,31,7,1,,,,,,
65172c25c4118007d8a75184,2025-08-21_17h02.23.913,GLINT,2024.2.4,Win32,59.88023952,,,,,,,,,,,,,,,,,,,,pineapple,inanim_natural,4,snail,dog,mushroom,pineapple,car,airplane,house,bear,apple,5,0,1.9887,,car,inanim_artificial,0,scrambled,1,14,32,8,1,,,,,,
65172c25c4118007d8a75184,2025-08-21_17h02.23.913,GLINT,2024.2.4,Win32,59.88023952,,,,,,,,,,,,,,,,,,,,binoculars,inanim_artificial,4,bear,avocado,apple,binoculars,butterfly,train,snail,mushroom,airplane,4,1,1.8564,,binoculars,inanim_artificial,1,scrambled,1,15,33,13,1,,,,,,
65172c25c4118007d8a75184,2025-08-21_17h02.23.913,GLINT,2024.2.4,Win32,59.88023952,,,,,,,,,,,,,,,,,,,,avocado,inanim_natural,5,airplane,binoculars,car,corn,avocado,pineapple,cow,butterfly,snail,5,1,1.2158,,avocado,inanim_natural,1,scrambled,1,16,34,11,1,,,,,,
65172c25c4118007d8a75184,2025-08-21_17h02.23.913,GLINT,2024.2.4,Win32,59.88023952,,,,,,,,,,,,,,,,,,,,cat,anim_natural,7,corn,dog,mushroom,house,butterfly,car,cat,avocado,airplane,7,1,2.8806,,cat,anim_natural,1,scrambled,1,17,35,2,1,,,,,,
65172c25c4118007d8a75184,2025-08-21_17h02.23.913,GLINT,2024.2.4,Win32,59.88023952,,,,,,,,,,,,,,,,,,,,avocado,inanim_natural,1,avocado,corn,bread,binoculars,snail,cow,train,airplane,butterfly,1,1,2.9606,,avocado,inanim_natural,1,scrambled,2,0,36,11,1,,,,,,
65172c25c4118007d8a75184,2025-08-21_17h02.23.913,GLINT,2024.2.4,Win32,59.88023952,,,,,,,,,,,,,,,,,,,,house,inanim_artificial,5,snail,butterfly,avocado,airplane,house,apple,bread,cat,car,5,1,1.5829,,house,inanim_artificial,1,scrambled,2,1,37,15,1,,,,,,
65172c25c4118007d8a75184,2025-08-21_17h02.23.913,GLINT,2024.2.4,Win32,59.88023952,,,,,,,,,,,,,,,,,,,,butterfly,anim_natural,9,airplane,cow,apple,train,avocado,mushroom,bear,car,butterfly,9,1,2.1802,,butterfly,anim_natural,1,scrambled,2,2,38,1,1,,,,,,
65172c25c4118007d8a75184,2025-08-21_17h02.23.913,GLINT,2024.2.4,Win32,59.88023952,,,,,,,,,,,,,,,,,,,,car,inanim_artificial,3,avocado,house,car,binoculars,dog,snail,bread,butterfly,pineapple,3,1,2.2839,,car,inanim_artificial,1,scrambled,2,3,39,14,1,,,,,,
65172c25c4118007d8a75184,2025-08-21_17h02.23.913,GLINT,2024.2.4,Win32,59.88023952,,,,,,,,,,,,,,,,,,,,apple,inanim_natural,9,cat,pineapple,airplane,lawnmower,corn,bear,car,cow,apple,9,1,3.763,,apple,inanim_natural,1,scrambled,2,4,40,9,1,,,,,,
65172c25c4118007d8a75184,2025-08-21_17h02.23.913,GLINT,2024.2.4,Win32,59.88023952,,,,,,,,,,,,,,,,,,,,cow,anim_natural,5,cat,pineapple,train,snail,cow,binoculars,avocado,corn,lawnmower,5,1,1.1919,,cow,anim_natural,1,scrambled,2,5,41,3,1,,,,,,
65172c25c4118007d8a75184,2025-08-21_17h02.23.913,GLINT,2024.2.4,Win32,59.88023952,,,,,,,,,,,,,,,,,,,,airplane,inanim_artificial,4,house,train,bread,airplane,snail,dog,cat,pineapple,corn,4,1,1.6572,,airplane,inanim_artificial,1,scrambled,2,6,42,12,1,,,,,,
65172c25c4118007d8a75184,2025-08-21_17h02.23.913,GLINT,2024.2.4,Win32,59.88023952,,,,,,,,,,,,,,,,,,,,dog,anim_natural,8,lawnmower,house,binoculars,bread,apple,snail,corn,dog,butterfly,8,1,2.8978,,dog,anim_natural,1,scrambled,2,7,43,4,1,,,,,,
65172c25c4118007d8a75184,2025-08-21_17h02.23.913,GLINT,2024.2.4,Win32,59.88023952,,,,,,,,,,,,,,,,,,,,train,inanim_artificial,5,cow,house,avocado,bread,train,cat,mushroom,airplane,dog,5,1,1.5099,,train,inanim_artificial,1,scrambled,2,8,44,17,1,,,,,,
65172c25c4118007d8a75184,2025-08-21_17h02.23.913,GLINT,2024.2.4,Win32,59.88023952,,,,,,,,,,,,,,,,,,,,bear,anim_natural,8,train,dog,apple,airplane,corn,mushroom,snail,bear,lawnmower,5,0,1.87,,corn,inanim_natural,0,scrambled,2,9,45,0,1,,,,,,
65172c25c4118007d8a75184,2025-08-21_17h02.23.913,GLINT,2024.2.4,Win32,59.88023952,,,,,,,,,,,,,,,,,,,,binoculars,inanim_artificial,8,airplane,corn,butterfly,cow,train,avocado,bear,binoculars,pineapple,8,1,1.4907,,binoculars,inanim_artificial,1,scrambled,2,10,46,13,1,,,,,,
65172c25c4118007d8a75184,2025-08-21_17h02.23.913,GLINT,2024.2.4,Win32,59.88023952,,,,,,,,,,,,,,,,,,,,mushroom,inanim_natural,4,car,bear,avocado,mushroom,train,butterfly,airplane,pineapple,cat,4,1,1.3072,,mushroom,inanim_natural,1,scrambled,2,11,47,7,1,,,,,,
65172c25c4118007d8a75184,2025-08-21_17h02.23.913,GLINT,2024.2.4,Win32,59.88023952,,,,,,,,,,,,,,,,,,,,pineapple,inanim_natural,7,binoculars,train,apple,dog,cow,mushroom,pineapple,car,bear,7,1,1.5829,,pineapple,inanim_natural,1,scrambled,2,12,48,8,1,,,,,,
65172c25c4118007d8a75184,2025-08-21_17h02.23.913,GLINT,2024.2.4,Win32,59.88023952,,,,,,,,,,,,,,,,,,,,corn,inanim_natural,5,car,airplane,butterfly,snail,corn,bread,mushroom,dog,house,5,1,1.2249,,corn,inanim_natural,1,scrambled,2,13,49,10,1,,,,,,
65172c25c4118007d8a75184,2025-08-21_17h02.23.913,GLINT,2024.2.4,Win32,59.88023952,,,,,,,,,,,,,,,,,,,,lawnmower,inanim_artificial,4,avocado,bread,snail,lawnmower,airplane,train,apple,dog,butterfly,7,0,2.6167,,apple,inanim_natural,0,scrambled,2,14,50,16,1,,,,,,
65172c25c4118007d8a75184,2025-08-21_17h02.23.913,GLINT,2024.2.4,Win32,59.88023952,,,,,,,,,,,,,,,,,,,,snail,anim_natural,2,bear,snail,car,train,mushroom,corn,cow,pineapple,binoculars,2,1,1.4834,,snail,anim_natural,1,scrambled,2,15,51,5,1,,,,,,
65172c25c4118007d8a75184,2025-08-21_17h02.23.913,GLINT,2024.2.4,Win32,59.88023952,,,,,,,,,,,,,,,,,,,,cat,anim_natural,4,mushroom,bread,lawnmower,cat,bear,butterfly,binoculars,house,apple,4,1,1.2311,,cat,anim_natural,1,scrambled,2,16,52,2,1,,,,,,
65172c25c4118007d8a75184,2025-08-21_17h02.23.913,GLINT,2024.2.4,Win32,59.88023952,,,,,,,,,,,,,,,,,,,,bread,inanim_natural,8,airplane,house,mushroom,snail,dog,train,apple,bread,cat,8,1,1.8394,,bread,inanim_natural,1,scrambled,2,17,53,6,1,,,,,,
65172c25c4118007d8a75184,2025-08-21_17h02.23.913,GLINT,2024.2.4,Win32,59.88023952,,,,,,,,,,,,,,,,,,,,lawnmower,inanim_artificial,4,cat,avocado,corn,lawnmower,binoculars,train,dog,apple,snail,4,1,1.7165,,lawnmower,inanim_artificial,1,scrambled,3,0,54,16,1,,,,,,
65172c25c4118007d8a75184,2025-08-21_17h02.23.913,GLINT,2024.2.4,Win32,59.88023952,,,,,,,,,,,,,,,,,,,,pineapple,inanim_natural,5,bear,car,mushroom,apple,pineapple,house,cow,train,cat,5,1,1.1536,,pineapple,inanim_natural,1,scrambled,3,1,55,8,1,,,,,,
65172c25c4118007d8a75184,2025-08-21_17h02.23.913,GLINT,2024.2.4,Win32,59.88023952,,,,,,,,,,,,,,,,,,,,binoculars,inanim_artificial,3,avocado,butterfly,binoculars,bread,lawnmower,train,cow,dog,mushroom,3,1,2.3475,,binoculars,inanim_artificial,1,scrambled,3,2,56,13,1,,,,,,
65172c25c4118007d8a75184,2025-08-21_17h02.23.913,GLINT,2024.2.4,Win32,59.88023952,,,,,,,,,,,,,,,,,,,,bread,inanim_natural,9,corn,cat,bear,butterfly,house,car,mushroom,airplane,bread,9,1,2.6405,,bread,inanim_natural,1,scrambled,3,3,57,6,1,,,,,,
65172c25c4118007d8a75184,2025-08-21_17h02.23.913,GLINT,2024.2.4,Win32,59.88023952,,,,,,,,,,,,,,,,,,,,snail,anim_natural,5,car,butterfly,train,corn,snail,bread,avocado,airplane,bear,5,1,1.0643,,snail,anim_natural,1,scrambled,3,4,58,5,1,,,,,,
65172c25c4118007d8a75184,2025-08-21_17h02.23.913,GLINT,2024.2.4,Win32,59.88023952,,,,,,,,,,,,,,,,,,,,bear,anim_natural,6,corn,dog,avocado,bread,car,bear,train,snail,airplane,6,1,2.053,,bear,anim_natural,1,scrambled,3,5,59,0,1,,,,,,
65172c25c4118007d8a75184,2025-08-21_17h02.23.913,GLINT,2024.2.4,Win32,59.88023952,,,,,,,,,,,,,,,,,,,,airplane,inanim_artificial,9,binoculars,snail,pineapple,apple,cow,cat,avocado,lawnmower,airplane,9,1,2.1421,,airplane,inanim_artificial,1,scrambled,3,6,60,12,1,,,,,,
65172c25c4118007d8a75184,2025-08-21_17h02.23.913,GLINT,2024.2.4,Win32,59.88023952,,,,,,,,,,,,,,,,,,,,house,inanim_artificial,8,cat,butterfly,apple,car,lawnmower,dog,corn,house,avocado,8,1,1.7348,,house,inanim_artificial,1,scrambled,3,7,61,15,1,,,,,,
65172c25c4118007d8a75184,2025-08-21_17h02.23.913,GLINT,2024.2.4,Win32,59.88023952,,,,,,,,,,,,,,,,,,,,mushroom,inanim_natural,8,train,pineapple,binoculars,corn,snail,lawnmower,cat,mushroom,dog,8,1,1.942,,mushroom,inanim_natural,1,scrambled,3,8,62,7,1,,,,,,
65172c25c4118007d8a75184,2025-08-21_17h02.23.913,GLINT,2024.2.4,Win32,59.88023952,,,,,,,,,,,,,,,,,,,,corn,inanim_natural,8,bear,butterfly,bread,cow,train,house,car,corn,mushroom,8,1,1.846,,corn,inanim_natural,1,scrambled,3,9,63,10,1,,,,,,
65172c25c4118007d8a75184,2025-08-21_17h02.23.913,GLINT,2024.2.4,Win32,59.88023952,,,,,,,,,,,,,,,,,,,,apple,inanim_natural,5,pineapple,airplane,dog,bread,apple,train,binoculars,butterfly,bear,5,1,1.3308,,apple,inanim_natural,1,scrambled,3,10,64,9,1,,,,,,
65172c25c4118007d8a75184,2025-08-21_17h02.23.913,GLINT,2024.2.4,Win32,59.88023952,,,,,,,,,,,,,,,,,,,,butterfly,anim_natural,4,bear,airplane,bread,butterfly,lawnmower,house,pineapple,apple,cow,4,1,1.6483,,butterfly,anim_natural,1,scrambled,3,11,65,1,1,,,,,,
65172c25c4118007d8a75184,2025-08-21_17h02.23.913,GLINT,2024.2.4,Win32,59.88023952,,,,,,,,,,,,,,,,,,,,train,inanim_artificial,5,cow,airplane,pineapple,cat,train,bear,house,corn,bread,5,1,1.2841,,train,inanim_artificial,1,scrambled,3,12,66,17,1,,,,,,
65172c25c4118007d8a75184,2025-08-21_17h02.23.913,GLINT,2024.2.4,Win32,59.88023952,,,,,,,,,,,,,,,,,,,,cow,anim_natural,2,dog,cow,car,pineapple,train,corn,bear,lawnmower,apple,2,1,1.5029,,cow,anim_natural,1,scrambled,3,13,67,3,1,,,,,,
65172c25c4118007d8a75184,2025-08-21_17h02.23.913,GLINT,2024.2.4,Win32,59.88023952,,,,,,,,,,,,,,,,,,,,car,inanim_artificial,4,bear,avocado,corn,car,binoculars,lawnmower,snail,cow,apple,4,1,1.1775,,car,inanim_artificial,1,scrambled,3,14,68,14,1,,,,,,
65172c25c4118007d8a75184,2025-08-21_17h02.23.913,GLINT,2024.2.4,Win32,59.88023952,,,,,,,,,,,,,,,,,,,,dog,anim_natural,2,car,dog,butterfly,pineapple,corn,cat,mushroom,binoculars,train,2,1,1.6705,,dog,anim_natural,1,scrambled,3,15,69,4,1,,,,,,
65172c25c4118007d8a75184,2025-08-21_17h02.23.913,GLINT,2024.2.4,Win32,59.88023952,,,,,,,,,,,,,,,,,,,,avocado,inanim_natural,7,bear,mushroom,lawnmower,bread,butterfly,snail,avocado,train,house,7,1,2.4182,,avocado,inanim_natural,1,scrambled,3,16,70,11,1,,,,,,
65172c25c4118007d8a75184,2025-08-21_17h02.23.913,GLINT,2024.2.4,Win32,59.88023952,,,,,,,,,,,,,,,,,,,,cat,anim_natural,1,cat,butterfly,mushroom,bread,car,apple,binoculars,train,snail,1,1,1.6344,,cat,anim_natural,1,scrambled,3,17,71,2,1,,,,,,
65172c25c4118007d8a75184,2025-08-21_17h02.23.913,GLINT,2024.2.4,Win32,59.88023952,,,,,,,,,,,,,,,,,,,,,,,,,,,,,,,,,,,,,,,,,,,,,0,2,2,2,1,scrambled
