participant,date,expName,psychopyVersion,OS,frameRate,CorrectResponse,prac_prompt_1,prac_prompt_2,prac_prompt_3,prac_prompt_4,prac_prompt_5,prac_prompt_6,prac_prompt_7,prac_prompt_8,prac_prompt_9,prac_key_resp.keys,prac_key_resp.corr,prac_key_resp.rt,prac_key_resp.duration,prac_loop.thisRepN,prac_loop.thisTrialN,prac_loop.thisN,prac_loop.thisIndex,prac_loop.ran,object_class,object_category,corr_ans,prompt_1,prompt_2,prompt_3,prompt_4,prompt_5,prompt_6,prompt_7,prompt_8,prompt_9,key_resp.keys,key_resp.corr,key_resp.rt,key_resp.duration,response_label,response_animacy,corr_animacy,img_condition,test_loop.thisRepN,test_loop.thisTrialN,test_loop.thisN,test_loop.thisIndex,test_loop.ran,randomize_blocks.thisRepN,randomize_blocks.thisTrialN,randomize_blocks.thisN,randomize_blocks.thisIndex,randomize_blocks.ran,block_condition
663eea8e72f4269ddd149eba,2025-08-20_16h24.59.635,GLINT,2024.2.4,MacIntel,59.17159763,,,,,,,,,,,,,,,,,,,,,,,,,,,,,,,,,,,,,,,,,,,,,,,,,,
663eea8e72f4269ddd149eba,2025-08-20_16h24.59.635,GLINT,2024.2.4,MacIntel,59.17159763,,,,,,,,,,,,,,,,,,,,,,,,,,,,,,,,,,,,,,,,,,,,,,,,,,
663eea8e72f4269ddd149eba,2025-08-20_16h24.59.635,GLINT,2024.2.4,MacIntel,59.17159763,,,,,,,,,,,,,,,,,,,,,,,,,,,,,,,,,,,,,,,,,,,,,,,,,,
663eea8e72f4269ddd149eba,2025-08-20_16h24.59.635,GLINT,2024.2.4,MacIntel,59.17159763,2,dog,duck,tree,hand,bicycle,chair,leaf,truck,flower,2,1,2.2439,,0,0,0,1,1,duck,anim_natural,,,,,,,,,,,,,,,,,,,,,,,,,,,,,
663eea8e72f4269ddd149eba,2025-08-20_16h24.59.635,GLINT,2024.2.4,MacIntel,59.17159763,8,tree,leaf,flower,truck,dog,bicycle,duck,hand,chair,8,1,4.3741,,0,1,1,0,1,hand,anim_natural,,,,,,,,,,,,,,,,,,,,,,,,,,,,,
663eea8e72f4269ddd149eba,2025-08-20_16h24.59.635,GLINT,2024.2.4,MacIntel,59.17159763,8,tree,chair,duck,bicycle,dog,leaf,hand,flower,truck,6,0,3.7642,,0,2,2,3,1,flower,inanim_natural,,,,,,,,,,,,,,,,,,,,,,,,,,,,,
663eea8e72f4269ddd149eba,2025-08-20_16h24.59.635,GLINT,2024.2.4,MacIntel,59.17159763,5,hand,chair,duck,bicycle,dog,leaf,truck,flower,tree,5,1,1.41,,0,3,3,2,1,dog,anim_natural,,,,,,,,,,,,,,,,,,,,,,,,,,,,,
663eea8e72f4269ddd149eba,2025-08-20_16h24.59.635,GLINT,2024.2.4,MacIntel,59.17159763,1,tree,bicycle,hand,truck,chair,dog,duck,flower,leaf,1,1,4.1618,,0,4,4,4,1,tree,inanim_natural,,,,,,,,,,,,,,,,,,,,,,,,,,,,,
663eea8e72f4269ddd149eba,2025-08-20_16h24.59.635,GLINT,2024.2.4,MacIntel,59.17159763,,,,,,,,,,,,,,,,,,,,cow,anim_natural,9,pineapple,house,airplane,cat,train,bread,dog,mushroom,cow,9,1,2.5845,,cow,anim_natural,1,natural,0,0,0,3,1,,,,,,
663eea8e72f4269ddd149eba,2025-08-20_16h24.59.635,GLINT,2024.2.4,MacIntel,59.17159763,,,,,,,,,,,,,,,,,,,,lawnmower,inanim_artificial,4,airplane,bear,pineapple,lawnmower,avocado,bread,butterfly,dog,train,4,1,2.9072,,lawnmower,inanim_artificial,1,natural,0,1,1,16,1,,,,,,
663eea8e72f4269ddd149eba,2025-08-20_16h24.59.635,GLINT,2024.2.4,MacIntel,59.17159763,,,,,,,,,,,,,,,,,,,,apple,inanim_natural,9,binoculars,bread,cow,lawnmower,pineapple,butterfly,bear,house,apple,9,1,2.2965,,apple,inanim_natural,1,natural,0,2,2,9,1,,,,,,
663eea8e72f4269ddd149eba,2025-08-20_16h24.59.635,GLINT,2024.2.4,MacIntel,59.17159763,,,,,,,,,,,,,,,,,,,,avocado,inanim_natural,7,lawnmower,corn,house,apple,binoculars,bear,avocado,cow,cat,7,1,1.852,,avocado,inanim_natural,1,natural,0,3,3,11,1,,,,,,
663eea8e72f4269ddd149eba,2025-08-20_16h24.59.635,GLINT,2024.2.4,MacIntel,59.17159763,,,,,,,,,,,,,,,,,,,,corn,inanim_natural,5,mushroom,butterfly,car,snail,corn,dog,lawnmower,avocado,airplane,5,1,1.0649,,corn,inanim_natural,1,natural,0,4,4,10,1,,,,,,
663eea8e72f4269ddd149eba,2025-08-20_16h24.59.635,GLINT,2024.2.4,MacIntel,59.17159763,,,,,,,,,,,,,,,,,,,,binoculars,inanim_artificial,8,butterfly,apple,dog,bread,corn,snail,house,binoculars,train,8,1,2.5064,,binoculars,inanim_artificial,1,natural,0,5,5,13,1,,,,,,
663eea8e72f4269ddd149eba,2025-08-20_16h24.59.635,GLINT,2024.2.4,MacIntel,59.17159763,,,,,,,,,,,,,,,,,,,,airplane,inanim_artificial,5,dog,bread,cow,train,airplane,house,apple,avocado,bear,5,1,2.2602,,airplane,inanim_artificial,1,natural,0,6,6,12,1,,,,,,
663eea8e72f4269ddd149eba,2025-08-20_16h24.59.635,GLINT,2024.2.4,MacIntel,59.17159763,,,,,,,,,,,,,,,,,,,,mushroom,inanim_natural,1,mushroom,house,cat,binoculars,butterfly,avocado,pineapple,airplane,bear,1,1,0.7998,,mushroom,inanim_natural,1,natural,0,7,7,7,1,,,,,,
663eea8e72f4269ddd149eba,2025-08-20_16h24.59.635,GLINT,2024.2.4,MacIntel,59.17159763,,,,,,,,,,,,,,,,,,,,snail,anim_natural,1,snail,cat,avocado,bear,lawnmower,house,mushroom,car,pineapple,1,1,2.0958,,snail,anim_natural,1,natural,0,8,8,5,1,,,,,,
663eea8e72f4269ddd149eba,2025-08-20_16h24.59.635,GLINT,2024.2.4,MacIntel,59.17159763,,,,,,,,,,,,,,,,,,,,dog,anim_natural,7,corn,bear,bread,cat,binoculars,airplane,dog,pineapple,lawnmower,7,1,2.8594,,dog,anim_natural,1,natural,0,9,9,4,1,,,,,,
663eea8e72f4269ddd149eba,2025-08-20_16h24.59.635,GLINT,2024.2.4,MacIntel,59.17159763,,,,,,,,,,,,,,,,,,,,butterfly,anim_natural,9,house,cat,dog,binoculars,train,apple,pineapple,mushroom,butterfly,,0,,,no response,no response,0,natural,0,10,10,1,1,,,,,,
663eea8e72f4269ddd149eba,2025-08-20_16h24.59.635,GLINT,2024.2.4,MacIntel,59.17159763,,,,,,,,,,,,,,,,,,,,train,inanim_artificial,2,corn,train,cat,apple,mushroom,cow,house,bear,car,2,1,1.9248,,train,inanim_artificial,1,natural,0,11,11,17,1,,,,,,
663eea8e72f4269ddd149eba,2025-08-20_16h24.59.635,GLINT,2024.2.4,MacIntel,59.17159763,,,,,,,,,,,,,,,,,,,,car,inanim_artificial,1,car,dog,snail,cat,airplane,apple,train,mushroom,bread,1,1,0.6489,,car,inanim_artificial,1,natural,0,12,12,14,1,,,,,,
663eea8e72f4269ddd149eba,2025-08-20_16h24.59.635,GLINT,2024.2.4,MacIntel,59.17159763,,,,,,,,,,,,,,,,,,,,bear,anim_natural,5,butterfly,train,avocado,snail,bear,apple,lawnmower,airplane,bread,5,1,1.1628,,bear,anim_natural,1,natural,0,13,13,0,1,,,,,,
663eea8e72f4269ddd149eba,2025-08-20_16h24.59.635,GLINT,2024.2.4,MacIntel,59.17159763,,,,,,,,,,,,,,,,,,,,cat,anim_natural,9,pineapple,apple,butterfly,dog,avocado,car,house,train,cat,9,1,2.1259,,cat,anim_natural,1,natural,0,14,14,2,1,,,,,,
663eea8e72f4269ddd149eba,2025-08-20_16h24.59.635,GLINT,2024.2.4,MacIntel,59.17159763,,,,,,,,,,,,,,,,,,,,bread,inanim_natural,1,bread,house,airplane,mushroom,bear,pineapple,lawnmower,cow,dog,1,1,1.8496,,bread,inanim_natural,1,natural,0,15,15,6,1,,,,,,
663eea8e72f4269ddd149eba,2025-08-20_16h24.59.635,GLINT,2024.2.4,MacIntel,59.17159763,,,,,,,,,,,,,,,,,,,,pineapple,inanim_natural,8,snail,car,bear,train,cow,bread,apple,pineapple,house,8,1,1.5919,,pineapple,inanim_natural,1,natural,0,16,16,8,1,,,,,,
663eea8e72f4269ddd149eba,2025-08-20_16h24.59.635,GLINT,2024.2.4,MacIntel,59.17159763,,,,,,,,,,,,,,,,,,,,house,inanim_artificial,1,house,airplane,cow,avocado,bread,bear,apple,cat,binoculars,1,1,0.9001,,house,inanim_artificial,1,natural,0,17,17,15,1,,,,,,
663eea8e72f4269ddd149eba,2025-08-20_16h24.59.635,GLINT,2024.2.4,MacIntel,59.17159763,,,,,,,,,,,,,,,,,,,,apple,inanim_natural,2,corn,apple,house,cow,mushroom,snail,lawnmower,bear,airplane,2,1,0.7343,,apple,inanim_natural,1,natural,1,0,18,9,1,,,,,,
663eea8e72f4269ddd149eba,2025-08-20_16h24.59.635,GLINT,2024.2.4,MacIntel,59.17159763,,,,,,,,,,,,,,,,,,,,butterfly,anim_natural,5,lawnmower,bread,mushroom,dog,butterfly,apple,car,train,snail,5,1,2.5381,,butterfly,anim_natural,1,natural,1,1,19,1,1,,,,,,
663eea8e72f4269ddd149eba,2025-08-20_16h24.59.635,GLINT,2024.2.4,MacIntel,59.17159763,,,,,,,,,,,,,,,,,,,,dog,anim_natural,1,dog,avocado,binoculars,car,pineapple,apple,train,bear,cow,1,1,0.6725,,dog,anim_natural,1,natural,1,2,20,4,1,,,,,,
663eea8e72f4269ddd149eba,2025-08-20_16h24.59.635,GLINT,2024.2.4,MacIntel,59.17159763,,,,,,,,,,,,,,,,,,,,cat,anim_natural,5,house,lawnmower,apple,avocado,cat,cow,snail,binoculars,pineapple,5,1,1.3439,,cat,anim_natural,1,natural,1,3,21,2,1,,,,,,
663eea8e72f4269ddd149eba,2025-08-20_16h24.59.635,GLINT,2024.2.4,MacIntel,59.17159763,,,,,,,,,,,,,,,,,,,,cow,anim_natural,3,house,avocado,cow,pineapple,car,train,bread,dog,butterfly,3,1,2.4186,,cow,anim_natural,1,natural,1,4,22,3,1,,,,,,
663eea8e72f4269ddd149eba,2025-08-20_16h24.59.635,GLINT,2024.2.4,MacIntel,59.17159763,,,,,,,,,,,,,,,,,,,,avocado,inanim_natural,1,avocado,cat,corn,butterfly,train,snail,lawnmower,house,apple,1,1,0.6009,,avocado,inanim_natural,1,natural,1,5,23,11,1,,,,,,
663eea8e72f4269ddd149eba,2025-08-20_16h24.59.635,GLINT,2024.2.4,MacIntel,59.17159763,,,,,,,,,,,,,,,,,,,,snail,anim_natural,7,bear,butterfly,apple,lawnmower,car,corn,snail,binoculars,mushroom,7,1,1.8467,,snail,anim_natural,1,natural,1,6,24,5,1,,,,,,
663eea8e72f4269ddd149eba,2025-08-20_16h24.59.635,GLINT,2024.2.4,MacIntel,59.17159763,,,,,,,,,,,,,,,,,,,,corn,inanim_natural,7,train,lawnmower,cat,car,dog,cow,corn,avocado,bread,7,1,1.8483,,corn,inanim_natural,1,natural,1,7,25,10,1,,,,,,
663eea8e72f4269ddd149eba,2025-08-20_16h24.59.635,GLINT,2024.2.4,MacIntel,59.17159763,,,,,,,,,,,,,,,,,,,,airplane,inanim_artificial,1,airplane,dog,apple,pineapple,corn,lawnmower,snail,cow,house,1,1,1.3421,,airplane,inanim_artificial,1,natural,1,8,26,12,1,,,,,,
663eea8e72f4269ddd149eba,2025-08-20_16h24.59.635,GLINT,2024.2.4,MacIntel,59.17159763,,,,,,,,,,,,,,,,,,,,train,inanim_artificial,4,pineapple,dog,airplane,train,butterfly,bear,mushroom,bread,house,,0,,,no response,no response,0,natural,1,9,27,17,1,,,,,,
663eea8e72f4269ddd149eba,2025-08-20_16h24.59.635,GLINT,2024.2.4,MacIntel,59.17159763,,,,,,,,,,,,,,,,,,,,lawnmower,inanim_artificial,6,airplane,mushroom,bear,house,corn,lawnmower,snail,apple,cat,6,1,2.5529,,lawnmower,inanim_artificial,1,natural,1,10,28,16,1,,,,,,
663eea8e72f4269ddd149eba,2025-08-20_16h24.59.635,GLINT,2024.2.4,MacIntel,59.17159763,,,,,,,,,,,,,,,,,,,,bear,anim_natural,6,bread,avocado,house,cat,mushroom,bear,car,dog,train,6,1,2.0568,,bear,anim_natural,1,natural,1,11,29,0,1,,,,,,
663eea8e72f4269ddd149eba,2025-08-20_16h24.59.635,GLINT,2024.2.4,MacIntel,59.17159763,,,,,,,,,,,,,,,,,,,,mushroom,inanim_natural,7,binoculars,car,bear,cat,apple,airplane,mushroom,avocado,butterfly,7,1,1.9092,,mushroom,inanim_natural,1,natural,1,12,30,7,1,,,,,,
663eea8e72f4269ddd149eba,2025-08-20_16h24.59.635,GLINT,2024.2.4,MacIntel,59.17159763,,,,,,,,,,,,,,,,,,,,binoculars,inanim_artificial,6,snail,cat,airplane,bread,bear,binoculars,house,pineapple,avocado,,0,,,no response,no response,0,natural,1,13,31,13,1,,,,,,
663eea8e72f4269ddd149eba,2025-08-20_16h24.59.635,GLINT,2024.2.4,MacIntel,59.17159763,,,,,,,,,,,,,,,,,,,,car,inanim_artificial,7,butterfly,dog,corn,avocado,binoculars,cow,car,house,pineapple,7,1,2.8686,,car,inanim_artificial,1,natural,1,14,32,14,1,,,,,,
663eea8e72f4269ddd149eba,2025-08-20_16h24.59.635,GLINT,2024.2.4,MacIntel,59.17159763,,,,,,,,,,,,,,,,,,,,bread,inanim_natural,4,airplane,butterfly,cow,bread,lawnmower,avocado,mushroom,train,snail,4,1,3.8957,,bread,inanim_natural,1,natural,1,15,33,6,1,,,,,,
663eea8e72f4269ddd149eba,2025-08-20_16h24.59.635,GLINT,2024.2.4,MacIntel,59.17159763,,,,,,,,,,,,,,,,,,,,house,inanim_artificial,5,airplane,bread,cat,butterfly,house,car,corn,avocado,bear,5,1,2.0445,,house,inanim_artificial,1,natural,1,16,34,15,1,,,,,,
663eea8e72f4269ddd149eba,2025-08-20_16h24.59.635,GLINT,2024.2.4,MacIntel,59.17159763,,,,,,,,,,,,,,,,,,,,pineapple,inanim_natural,6,cow,butterfly,corn,cat,apple,pineapple,binoculars,car,house,6,1,1.8967,,pineapple,inanim_natural,1,natural,1,17,35,8,1,,,,,,
663eea8e72f4269ddd149eba,2025-08-20_16h24.59.635,GLINT,2024.2.4,MacIntel,59.17159763,,,,,,,,,,,,,,,,,,,,dog,anim_natural,3,binoculars,butterfly,dog,corn,bear,mushroom,lawnmower,house,pineapple,3,1,1.4791,,dog,anim_natural,1,natural,2,0,36,4,1,,,,,,
663eea8e72f4269ddd149eba,2025-08-20_16h24.59.635,GLINT,2024.2.4,MacIntel,59.17159763,,,,,,,,,,,,,,,,,,,,train,inanim_artificial,5,house,bear,snail,mushroom,train,apple,bread,cow,lawnmower,5,1,2.1976,,train,inanim_artificial,1,natural,2,1,37,17,1,,,,,,
663eea8e72f4269ddd149eba,2025-08-20_16h24.59.635,GLINT,2024.2.4,MacIntel,59.17159763,,,,,,,,,,,,,,,,,,,,car,inanim_artificial,7,bread,cow,lawnmower,dog,apple,bear,car,pineapple,airplane,,0,,,no response,no response,0,natural,2,2,38,14,1,,,,,,
663eea8e72f4269ddd149eba,2025-08-20_16h24.59.635,GLINT,2024.2.4,MacIntel,59.17159763,,,,,,,,,,,,,,,,,,,,snail,anim_natural,2,lawnmower,snail,butterfly,cow,pineapple,apple,house,mushroom,binoculars,2,1,1.7897,,snail,anim_natural,1,natural,2,3,39,5,1,,,,,,
663eea8e72f4269ddd149eba,2025-08-20_16h24.59.635,GLINT,2024.2.4,MacIntel,59.17159763,,,,,,,,,,,,,,,,,,,,airplane,inanim_artificial,3,pineapple,butterfly,airplane,cow,train,avocado,binoculars,apple,bear,5,0,1.7472,,train,inanim_artificial,1,natural,2,4,40,12,1,,,,,,
663eea8e72f4269ddd149eba,2025-08-20_16h24.59.635,GLINT,2024.2.4,MacIntel,59.17159763,,,,,,,,,,,,,,,,,,,,lawnmower,inanim_artificial,7,snail,apple,bear,pineapple,bread,cow,lawnmower,train,airplane,7,1,1.5898,,lawnmower,inanim_artificial,1,natural,2,5,41,16,1,,,,,,
663eea8e72f4269ddd149eba,2025-08-20_16h24.59.635,GLINT,2024.2.4,MacIntel,59.17159763,,,,,,,,,,,,,,,,,,,,apple,inanim_natural,1,apple,binoculars,corn,dog,lawnmower,train,mushroom,cat,butterfly,1,1,2.3975,,apple,inanim_natural,1,natural,2,6,42,9,1,,,,,,
663eea8e72f4269ddd149eba,2025-08-20_16h24.59.635,GLINT,2024.2.4,MacIntel,59.17159763,,,,,,,,,,,,,,,,,,,,cat,anim_natural,7,corn,apple,pineapple,binoculars,lawnmower,airplane,cat,cow,bear,7,1,2.369,,cat,anim_natural,1,natural,2,7,43,2,1,,,,,,
663eea8e72f4269ddd149eba,2025-08-20_16h24.59.635,GLINT,2024.2.4,MacIntel,59.17159763,,,,,,,,,,,,,,,,,,,,bear,anim_natural,1,bear,car,mushroom,dog,lawnmower,airplane,corn,cow,avocado,1,1,2.2785,,bear,anim_natural,1,natural,2,8,44,0,1,,,,,,
663eea8e72f4269ddd149eba,2025-08-20_16h24.59.635,GLINT,2024.2.4,MacIntel,59.17159763,,,,,,,,,,,,,,,,,,,,bread,inanim_natural,1,bread,snail,corn,apple,butterfly,lawnmower,house,bear,car,1,1,3.2581,,bread,inanim_natural,1,natural,2,9,45,6,1,,,,,,
663eea8e72f4269ddd149eba,2025-08-20_16h24.59.635,GLINT,2024.2.4,MacIntel,59.17159763,,,,,,,,,,,,,,,,,,,,avocado,inanim_natural,1,avocado,bread,house,butterfly,snail,dog,apple,lawnmower,train,1,1,2.5565,,avocado,inanim_natural,1,natural,2,10,46,11,1,,,,,,
663eea8e72f4269ddd149eba,2025-08-20_16h24.59.635,GLINT,2024.2.4,MacIntel,59.17159763,,,,,,,,,,,,,,,,,,,,binoculars,inanim_artificial,9,car,butterfly,avocado,apple,train,snail,cow,bread,binoculars,9,1,2.2328,,binoculars,inanim_artificial,1,natural,2,11,47,13,1,,,,,,
663eea8e72f4269ddd149eba,2025-08-20_16h24.59.635,GLINT,2024.2.4,MacIntel,59.17159763,,,,,,,,,,,,,,,,,,,,pineapple,inanim_natural,5,bear,airplane,snail,cow,pineapple,house,mushroom,apple,lawnmower,5,1,1.773,,pineapple,inanim_natural,1,natural,2,12,48,8,1,,,,,,
663eea8e72f4269ddd149eba,2025-08-20_16h24.59.635,GLINT,2024.2.4,MacIntel,59.17159763,,,,,,,,,,,,,,,,,,,,corn,inanim_natural,9,butterfly,pineapple,bear,car,snail,bread,house,lawnmower,corn,9,1,2.196,,corn,inanim_natural,1,natural,2,13,49,10,1,,,,,,
663eea8e72f4269ddd149eba,2025-08-20_16h24.59.635,GLINT,2024.2.4,MacIntel,59.17159763,,,,,,,,,,,,,,,,,,,,cow,anim_natural,1,cow,pineapple,binoculars,dog,corn,house,car,snail,bread,1,1,1.9504,,cow,anim_natural,1,natural,2,14,50,3,1,,,,,,
663eea8e72f4269ddd149eba,2025-08-20_16h24.59.635,GLINT,2024.2.4,MacIntel,59.17159763,,,,,,,,,,,,,,,,,,,,house,inanim_artificial,9,cow,bread,airplane,pineapple,snail,avocado,butterfly,lawnmower,house,9,1,3.1602,,house,inanim_artificial,1,natural,2,15,51,15,1,,,,,,
663eea8e72f4269ddd149eba,2025-08-20_16h24.59.635,GLINT,2024.2.4,MacIntel,59.17159763,,,,,,,,,,,,,,,,,,,,butterfly,anim_natural,5,apple,snail,cow,mushroom,butterfly,binoculars,pineapple,house,train,5,1,2.6101,,butterfly,anim_natural,1,natural,2,16,52,1,1,,,,,,
663eea8e72f4269ddd149eba,2025-08-20_16h24.59.635,GLINT,2024.2.4,MacIntel,59.17159763,,,,,,,,,,,,,,,,,,,,mushroom,inanim_natural,6,butterfly,binoculars,bear,airplane,house,mushroom,corn,bread,snail,6,1,1.6419,,mushroom,inanim_natural,1,natural,2,17,53,7,1,,,,,,
663eea8e72f4269ddd149eba,2025-08-20_16h24.59.635,GLINT,2024.2.4,MacIntel,59.17159763,,,,,,,,,,,,,,,,,,,,corn,inanim_natural,4,train,dog,house,corn,apple,cat,butterfly,lawnmower,mushroom,4,1,2.9302,,corn,inanim_natural,1,natural,3,0,54,10,1,,,,,,
663eea8e72f4269ddd149eba,2025-08-20_16h24.59.635,GLINT,2024.2.4,MacIntel,59.17159763,,,,,,,,,,,,,,,,,,,,dog,anim_natural,8,apple,bear,cow,mushroom,airplane,lawnmower,pineapple,dog,binoculars,8,1,2.0934,,dog,anim_natural,1,natural,3,1,55,4,1,,,,,,
663eea8e72f4269ddd149eba,2025-08-20_16h24.59.635,GLINT,2024.2.4,MacIntel,59.17159763,,,,,,,,,,,,,,,,,,,,mushroom,inanim_natural,8,train,airplane,snail,butterfly,car,corn,bread,mushroom,bear,,0,,,no response,no response,0,natural,3,2,56,7,1,,,,,,
663eea8e72f4269ddd149eba,2025-08-20_16h24.59.635,GLINT,2024.2.4,MacIntel,59.17159763,,,,,,,,,,,,,,,,,,,,cat,anim_natural,8,corn,airplane,avocado,cow,bread,bear,house,cat,car,8,1,2.9811,,cat,anim_natural,1,natural,3,3,57,2,1,,,,,,
663eea8e72f4269ddd149eba,2025-08-20_16h24.59.635,GLINT,2024.2.4,MacIntel,59.17159763,,,,,,,,,,,,,,,,,,,,butterfly,anim_natural,4,house,corn,train,butterfly,car,cat,snail,mushroom,pineapple,,0,,,no response,no response,0,natural,3,4,58,1,1,,,,,,
663eea8e72f4269ddd149eba,2025-08-20_16h24.59.635,GLINT,2024.2.4,MacIntel,59.17159763,,,,,,,,,,,,,,,,,,,,lawnmower,inanim_artificial,1,lawnmower,bread,butterfly,snail,binoculars,pineapple,cat,mushroom,airplane,1,1,2.7288,,lawnmower,inanim_artificial,1,natural,3,5,59,16,1,,,,,,
663eea8e72f4269ddd149eba,2025-08-20_16h24.59.635,GLINT,2024.2.4,MacIntel,59.17159763,,,,,,,,,,,,,,,,,,,,car,inanim_artificial,7,train,pineapple,avocado,lawnmower,dog,bear,car,mushroom,cow,7,1,2.1074,,car,inanim_artificial,1,natural,3,6,60,14,1,,,,,,
663eea8e72f4269ddd149eba,2025-08-20_16h24.59.635,GLINT,2024.2.4,MacIntel,59.17159763,,,,,,,,,,,,,,,,,,,,bear,anim_natural,7,lawnmower,pineapple,dog,mushroom,airplane,avocado,bear,snail,train,7,1,2.6029,,bear,anim_natural,1,natural,3,7,61,0,1,,,,,,
663eea8e72f4269ddd149eba,2025-08-20_16h24.59.635,GLINT,2024.2.4,MacIntel,59.17159763,,,,,,,,,,,,,,,,,,,,snail,anim_natural,4,pineapple,house,cow,snail,bread,lawnmower,cat,binoculars,avocado,4,1,1.9076,,snail,anim_natural,1,natural,3,8,62,5,1,,,,,,
663eea8e72f4269ddd149eba,2025-08-20_16h24.59.635,GLINT,2024.2.4,MacIntel,59.17159763,,,,,,,,,,,,,,,,,,,,bread,inanim_natural,9,lawnmower,cat,butterfly,mushroom,binoculars,avocado,bear,house,bread,9,1,3.9246,,bread,inanim_natural,1,natural,3,9,63,6,1,,,,,,
663eea8e72f4269ddd149eba,2025-08-20_16h24.59.635,GLINT,2024.2.4,MacIntel,59.17159763,,,,,,,,,,,,,,,,,,,,cow,anim_natural,8,mushroom,pineapple,car,avocado,butterfly,airplane,cat,cow,lawnmower,8,1,1.8616,,cow,anim_natural,1,natural,3,10,64,3,1,,,,,,
663eea8e72f4269ddd149eba,2025-08-20_16h24.59.635,GLINT,2024.2.4,MacIntel,59.17159763,,,,,,,,,,,,,,,,,,,,airplane,inanim_artificial,2,binoculars,airplane,apple,avocado,train,cow,butterfly,dog,bread,,0,,,no response,no response,0,natural,3,11,65,12,1,,,,,,
663eea8e72f4269ddd149eba,2025-08-20_16h24.59.635,GLINT,2024.2.4,MacIntel,59.17159763,,,,,,,,,,,,,,,,,,,,avocado,inanim_natural,7,bear,lawnmower,apple,dog,binoculars,cat,avocado,pineapple,train,7,1,2.1089,,avocado,inanim_natural,1,natural,3,12,66,11,1,,,,,,
663eea8e72f4269ddd149eba,2025-08-20_16h24.59.635,GLINT,2024.2.4,MacIntel,59.17159763,,,,,,,,,,,,,,,,,,,,train,inanim_artificial,4,avocado,cow,mushroom,train,bread,cat,airplane,dog,binoculars,4,1,2.7046,,train,inanim_artificial,1,natural,3,13,67,17,1,,,,,,
663eea8e72f4269ddd149eba,2025-08-20_16h24.59.635,GLINT,2024.2.4,MacIntel,59.17159763,,,,,,,,,,,,,,,,,,,,apple,inanim_natural,4,mushroom,house,lawnmower,apple,butterfly,cow,airplane,bread,dog,4,1,3.5513,,apple,inanim_natural,1,natural,3,14,68,9,1,,,,,,
663eea8e72f4269ddd149eba,2025-08-20_16h24.59.635,GLINT,2024.2.4,MacIntel,59.17159763,,,,,,,,,,,,,,,,,,,,pineapple,inanim_natural,8,house,corn,avocado,bear,butterfly,train,snail,pineapple,lawnmower,8,1,1.468,,pineapple,inanim_natural,1,natural,3,15,69,8,1,,,,,,
663eea8e72f4269ddd149eba,2025-08-20_16h24.59.635,GLINT,2024.2.4,MacIntel,59.17159763,,,,,,,,,,,,,,,,,,,,binoculars,inanim_artificial,5,corn,butterfly,cat,house,binoculars,bread,avocado,snail,train,5,1,2.2735,,binoculars,inanim_artificial,1,natural,3,16,70,13,1,,,,,,
663eea8e72f4269ddd149eba,2025-08-20_16h24.59.635,GLINT,2024.2.4,MacIntel,59.17159763,,,,,,,,,,,,,,,,,,,,house,inanim_artificial,9,binoculars,butterfly,corn,lawnmower,dog,avocado,mushroom,bear,house,9,1,2.5627,,house,inanim_artificial,1,natural,3,17,71,15,1,,,,,,
663eea8e72f4269ddd149eba,2025-08-20_16h24.59.635,GLINT,2024.2.4,MacIntel,59.17159763,,,,,,,,,,,,,,,,,,,,,,,,,,,,,,,,,,,,,,,,,,,,,0,0,0,0,1,natural
663eea8e72f4269ddd149eba,2025-08-20_16h24.59.635,GLINT,2024.2.4,MacIntel,59.17159763,,,,,,,,,,,,,,,,,,,,airplane,inanim_artificial,2,car,airplane,dog,butterfly,bread,train,mushroom,apple,cat,1,0,3.9025,,car,inanim_artificial,1,scrambled,0,0,0,12,1,,,,,,
663eea8e72f4269ddd149eba,2025-08-20_16h24.59.635,GLINT,2024.2.4,MacIntel,59.17159763,,,,,,,,,,,,,,,,,,,,pineapple,inanim_natural,4,avocado,cow,car,pineapple,train,bread,snail,lawnmower,cat,4,1,2.7968,,pineapple,inanim_natural,1,scrambled,0,1,1,8,1,,,,,,
663eea8e72f4269ddd149eba,2025-08-20_16h24.59.635,GLINT,2024.2.4,MacIntel,59.17159763,,,,,,,,,,,,,,,,,,,,binoculars,inanim_artificial,9,cat,car,dog,corn,bear,mushroom,bread,lawnmower,binoculars,9,1,2.2975,,binoculars,inanim_artificial,1,scrambled,0,2,2,13,1,,,,,,
663eea8e72f4269ddd149eba,2025-08-20_16h24.59.635,GLINT,2024.2.4,MacIntel,59.17159763,,,,,,,,,,,,,,,,,,,,car,inanim_artificial,2,snail,car,pineapple,binoculars,mushroom,bear,airplane,dog,bread,,0,,,no response,no response,0,scrambled,0,3,3,14,1,,,,,,
663eea8e72f4269ddd149eba,2025-08-20_16h24.59.635,GLINT,2024.2.4,MacIntel,59.17159763,,,,,,,,,,,,,,,,,,,,cow,anim_natural,9,bear,dog,mushroom,pineapple,train,binoculars,avocado,airplane,cow,,0,,,no response,no response,0,scrambled,0,4,4,3,1,,,,,,
663eea8e72f4269ddd149eba,2025-08-20_16h24.59.635,GLINT,2024.2.4,MacIntel,59.17159763,,,,,,,,,,,,,,,,,,,,butterfly,anim_natural,5,avocado,binoculars,snail,mushroom,butterfly,bread,house,lawnmower,cow,5,1,1.0703,,butterfly,anim_natural,1,scrambled,0,5,5,1,1,,,,,,
663eea8e72f4269ddd149eba,2025-08-20_16h24.59.635,GLINT,2024.2.4,MacIntel,59.17159763,,,,,,,,,,,,,,,,,,,,bread,inanim_natural,9,apple,lawnmower,car,snail,butterfly,train,cat,corn,bread,9,1,2.0133,,bread,inanim_natural,1,scrambled,0,6,6,6,1,,,,,,
663eea8e72f4269ddd149eba,2025-08-20_16h24.59.635,GLINT,2024.2.4,MacIntel,59.17159763,,,,,,,,,,,,,,,,,,,,house,inanim_artificial,8,lawnmower,train,bread,cow,dog,butterfly,apple,house,pineapple,8,1,4.2333,,house,inanim_artificial,1,scrambled,0,7,7,15,1,,,,,,
663eea8e72f4269ddd149eba,2025-08-20_16h24.59.635,GLINT,2024.2.4,MacIntel,59.17159763,,,,,,,,,,,,,,,,,,,,avocado,inanim_natural,2,lawnmower,avocado,apple,train,bread,bear,airplane,dog,snail,1,0,1.8428,,lawnmower,inanim_artificial,0,scrambled,0,8,8,11,1,,,,,,
663eea8e72f4269ddd149eba,2025-08-20_16h24.59.635,GLINT,2024.2.4,MacIntel,59.17159763,,,,,,,,,,,,,,,,,,,,corn,inanim_natural,6,lawnmower,binoculars,cow,bread,car,corn,apple,bear,snail,6,1,1.6022,,corn,inanim_natural,1,scrambled,0,9,9,10,1,,,,,,
663eea8e72f4269ddd149eba,2025-08-20_16h24.59.635,GLINT,2024.2.4,MacIntel,59.17159763,,,,,,,,,,,,,,,,,,,,bear,anim_natural,1,bear,corn,bread,cat,airplane,train,avocado,cow,car,1,1,3.2093,,bear,anim_natural,1,scrambled,0,10,10,0,1,,,,,,
663eea8e72f4269ddd149eba,2025-08-20_16h24.59.635,GLINT,2024.2.4,MacIntel,59.17159763,,,,,,,,,,,,,,,,,,,,lawnmower,inanim_artificial,7,mushroom,airplane,snail,cat,cow,apple,lawnmower,train,pineapple,1,0,3.4468,,mushroom,inanim_natural,0,scrambled,0,11,11,16,1,,,,,,
663eea8e72f4269ddd149eba,2025-08-20_16h24.59.635,GLINT,2024.2.4,MacIntel,59.17159763,,,,,,,,,,,,,,,,,,,,train,inanim_artificial,3,bread,cow,train,avocado,bear,binoculars,butterfly,corn,airplane,3,1,2.4477,,train,inanim_artificial,1,scrambled,0,12,12,17,1,,,,,,
663eea8e72f4269ddd149eba,2025-08-20_16h24.59.635,GLINT,2024.2.4,MacIntel,59.17159763,,,,,,,,,,,,,,,,,,,,apple,inanim_natural,1,apple,lawnmower,cat,binoculars,bear,avocado,mushroom,train,snail,1,1,1.3779,,apple,inanim_natural,1,scrambled,0,13,13,9,1,,,,,,
663eea8e72f4269ddd149eba,2025-08-20_16h24.59.635,GLINT,2024.2.4,MacIntel,59.17159763,,,,,,,,,,,,,,,,,,,,dog,anim_natural,4,train,bread,avocado,dog,corn,cow,snail,lawnmower,car,,0,,,no response,no response,0,scrambled,0,14,14,4,1,,,,,,
663eea8e72f4269ddd149eba,2025-08-20_16h24.59.635,GLINT,2024.2.4,MacIntel,59.17159763,,,,,,,,,,,,,,,,,,,,cat,anim_natural,3,apple,mushroom,cat,corn,snail,house,binoculars,train,cow,3,1,1.4455,,cat,anim_natural,1,scrambled,0,15,15,2,1,,,,,,
663eea8e72f4269ddd149eba,2025-08-20_16h24.59.635,GLINT,2024.2.4,MacIntel,59.17159763,,,,,,,,,,,,,,,,,,,,mushroom,inanim_natural,2,train,mushroom,pineapple,bread,car,airplane,cat,snail,dog,2,1,1.1664,,mushroom,inanim_natural,1,scrambled,0,16,16,7,1,,,,,,
663eea8e72f4269ddd149eba,2025-08-20_16h24.59.635,GLINT,2024.2.4,MacIntel,59.17159763,,,,,,,,,,,,,,,,,,,,snail,anim_natural,6,dog,apple,corn,train,avocado,snail,lawnmower,cat,house,,0,,,no response,no response,0,scrambled,0,17,17,5,1,,,,,,
663eea8e72f4269ddd149eba,2025-08-20_16h24.59.635,GLINT,2024.2.4,MacIntel,59.17159763,,,,,,,,,,,,,,,,,,,,bread,inanim_natural,6,airplane,mushroom,butterfly,dog,apple,bread,car,cow,train,6,1,1.5761,,bread,inanim_natural,1,scrambled,1,0,18,6,1,,,,,,
663eea8e72f4269ddd149eba,2025-08-20_16h24.59.635,GLINT,2024.2.4,MacIntel,59.17159763,,,,,,,,,,,,,,,,,,,,airplane,inanim_artificial,3,bear,dog,airplane,avocado,corn,pineapple,train,cat,lawnmower,3,1,1.9144,,airplane,inanim_artificial,1,scrambled,1,1,19,12,1,,,,,,
663eea8e72f4269ddd149eba,2025-08-20_16h24.59.635,GLINT,2024.2.4,MacIntel,59.17159763,,,,,,,,,,,,,,,,,,,,pineapple,inanim_natural,5,corn,cat,airplane,apple,pineapple,cow,train,lawnmower,bear,5,1,0.88,,pineapple,inanim_natural,1,scrambled,1,2,20,8,1,,,,,,
663eea8e72f4269ddd149eba,2025-08-20_16h24.59.635,GLINT,2024.2.4,MacIntel,59.17159763,,,,,,,,,,,,,,,,,,,,lawnmower,inanim_artificial,6,corn,airplane,avocado,cat,cow,lawnmower,dog,pineapple,house,6,1,1.4245,,lawnmower,inanim_artificial,1,scrambled,1,3,21,16,1,,,,,,
663eea8e72f4269ddd149eba,2025-08-20_16h24.59.635,GLINT,2024.2.4,MacIntel,59.17159763,,,,,,,,,,,,,,,,,,,,cow,anim_natural,4,corn,pineapple,butterfly,cow,mushroom,train,bear,house,lawnmower,4,1,2.3518,,cow,anim_natural,1,scrambled,1,4,22,3,1,,,,,,
663eea8e72f4269ddd149eba,2025-08-20_16h24.59.635,GLINT,2024.2.4,MacIntel,59.17159763,,,,,,,,,,,,,,,,,,,,house,inanim_artificial,3,binoculars,pineapple,house,lawnmower,apple,bread,bear,dog,cow,3,1,1.8713,,house,inanim_artificial,1,scrambled,1,5,23,15,1,,,,,,
663eea8e72f4269ddd149eba,2025-08-20_16h24.59.635,GLINT,2024.2.4,MacIntel,59.17159763,,,,,,,,,,,,,,,,,,,,bear,anim_natural,5,pineapple,dog,cow,corn,bear,car,train,avocado,binoculars,2,0,0.9656,,dog,anim_natural,1,scrambled,1,6,24,0,1,,,,,,
663eea8e72f4269ddd149eba,2025-08-20_16h24.59.635,GLINT,2024.2.4,MacIntel,59.17159763,,,,,,,,,,,,,,,,,,,,butterfly,anim_natural,4,dog,airplane,cat,butterfly,pineapple,mushroom,lawnmower,binoculars,bread,4,1,2.0587,,butterfly,anim_natural,1,scrambled,1,7,25,1,1,,,,,,
663eea8e72f4269ddd149eba,2025-08-20_16h24.59.635,GLINT,2024.2.4,MacIntel,59.17159763,,,,,,,,,,,,,,,,,,,,apple,inanim_natural,1,apple,butterfly,snail,train,corn,dog,mushroom,binoculars,lawnmower,1,1,0.8603,,apple,inanim_natural,1,scrambled,1,8,26,9,1,,,,,,
663eea8e72f4269ddd149eba,2025-08-20_16h24.59.635,GLINT,2024.2.4,MacIntel,59.17159763,,,,,,,,,,,,,,,,,,,,avocado,inanim_natural,9,house,pineapple,binoculars,butterfly,cat,bear,bread,lawnmower,avocado,9,1,2.942,,avocado,inanim_natural,1,scrambled,1,9,27,11,1,,,,,,
663eea8e72f4269ddd149eba,2025-08-20_16h24.59.635,GLINT,2024.2.4,MacIntel,59.17159763,,,,,,,,,,,,,,,,,,,,train,inanim_artificial,1,train,car,bread,snail,cow,mushroom,lawnmower,cat,avocado,1,1,1.326,,train,inanim_artificial,1,scrambled,1,10,28,17,1,,,,,,
663eea8e72f4269ddd149eba,2025-08-20_16h24.59.635,GLINT,2024.2.4,MacIntel,59.17159763,,,,,,,,,,,,,,,,,,,,binoculars,inanim_artificial,3,house,cat,binoculars,butterfly,car,apple,mushroom,bear,bread,3,1,2.3752,,binoculars,inanim_artificial,1,scrambled,1,11,29,13,1,,,,,,
663eea8e72f4269ddd149eba,2025-08-20_16h24.59.635,GLINT,2024.2.4,MacIntel,59.17159763,,,,,,,,,,,,,,,,,,,,snail,anim_natural,1,snail,corn,cat,binoculars,avocado,apple,cow,house,airplane,1,1,1.8017,,snail,anim_natural,1,scrambled,1,12,30,5,1,,,,,,
663eea8e72f4269ddd149eba,2025-08-20_16h24.59.635,GLINT,2024.2.4,MacIntel,59.17159763,,,,,,,,,,,,,,,,,,,,car,inanim_artificial,1,car,mushroom,binoculars,house,cow,bread,cat,pineapple,bear,1,1,4.5064,,car,inanim_artificial,1,scrambled,1,13,31,14,1,,,,,,
663eea8e72f4269ddd149eba,2025-08-20_16h24.59.635,GLINT,2024.2.4,MacIntel,59.17159763,,,,,,,,,,,,,,,,,,,,dog,anim_natural,7,lawnmower,binoculars,snail,car,cat,apple,dog,pineapple,mushroom,7,1,2.6136,,dog,anim_natural,1,scrambled,1,14,32,4,1,,,,,,
663eea8e72f4269ddd149eba,2025-08-20_16h24.59.635,GLINT,2024.2.4,MacIntel,59.17159763,,,,,,,,,,,,,,,,,,,,cat,anim_natural,7,airplane,train,avocado,cow,apple,binoculars,cat,butterfly,bread,7,1,1.2913,,cat,anim_natural,1,scrambled,1,15,33,2,1,,,,,,
663eea8e72f4269ddd149eba,2025-08-20_16h24.59.635,GLINT,2024.2.4,MacIntel,59.17159763,,,,,,,,,,,,,,,,,,,,corn,inanim_natural,9,cow,binoculars,snail,cat,bread,car,lawnmower,mushroom,corn,9,1,2.3453,,corn,inanim_natural,1,scrambled,1,16,34,10,1,,,,,,
663eea8e72f4269ddd149eba,2025-08-20_16h24.59.635,GLINT,2024.2.4,MacIntel,59.17159763,,,,,,,,,,,,,,,,,,,,mushroom,inanim_natural,2,snail,mushroom,lawnmower,butterfly,dog,binoculars,airplane,apple,pineapple,2,1,1.0066,,mushroom,inanim_natural,1,scrambled,1,17,35,7,1,,,,,,
663eea8e72f4269ddd149eba,2025-08-20_16h24.59.635,GLINT,2024.2.4,MacIntel,59.17159763,,,,,,,,,,,,,,,,,,,,snail,anim_natural,6,apple,cow,butterfly,house,corn,snail,airplane,pineapple,lawnmower,6,1,1.4291,,snail,anim_natural,1,scrambled,2,0,36,5,1,,,,,,
663eea8e72f4269ddd149eba,2025-08-20_16h24.59.635,GLINT,2024.2.4,MacIntel,59.17159763,,,,,,,,,,,,,,,,,,,,binoculars,inanim_artificial,4,cat,mushroom,apple,binoculars,snail,bear,airplane,train,corn,4,1,1.5266,,binoculars,inanim_artificial,1,scrambled,2,1,37,13,1,,,,,,
663eea8e72f4269ddd149eba,2025-08-20_16h24.59.635,GLINT,2024.2.4,MacIntel,59.17159763,,,,,,,,,,,,,,,,,,,,dog,anim_natural,5,train,corn,airplane,cow,dog,lawnmower,avocado,apple,bear,5,1,1.1774,,dog,anim_natural,1,scrambled,2,2,38,4,1,,,,,,
663eea8e72f4269ddd149eba,2025-08-20_16h24.59.635,GLINT,2024.2.4,MacIntel,59.17159763,,,,,,,,,,,,,,,,,,,,train,inanim_artificial,3,cat,apple,train,airplane,pineapple,cow,house,dog,bread,3,1,3.2179,,train,inanim_artificial,1,scrambled,2,3,39,17,1,,,,,,
663eea8e72f4269ddd149eba,2025-08-20_16h24.59.635,GLINT,2024.2.4,MacIntel,59.17159763,,,,,,,,,,,,,,,,,,,,bread,inanim_natural,1,bread,butterfly,avocado,cat,mushroom,lawnmower,snail,car,house,1,1,0.8509,,bread,inanim_natural,1,scrambled,2,4,40,6,1,,,,,,
663eea8e72f4269ddd149eba,2025-08-20_16h24.59.635,GLINT,2024.2.4,MacIntel,59.17159763,,,,,,,,,,,,,,,,,,,,airplane,inanim_artificial,2,binoculars,airplane,cow,cat,snail,avocado,bread,car,apple,,0,,,no response,no response,0,scrambled,2,5,41,12,1,,,,,,
663eea8e72f4269ddd149eba,2025-08-20_16h24.59.635,GLINT,2024.2.4,MacIntel,59.17159763,,,,,,,,,,,,,,,,,,,,corn,inanim_natural,5,house,lawnmower,avocado,pineapple,corn,cow,dog,butterfly,binoculars,5,1,0.9793,,corn,inanim_natural,1,scrambled,2,6,42,10,1,,,,,,
663eea8e72f4269ddd149eba,2025-08-20_16h24.59.635,GLINT,2024.2.4,MacIntel,59.17159763,,,,,,,,,,,,,,,,,,,,cow,anim_natural,8,binoculars,train,airplane,snail,avocado,butterfly,pineapple,cow,bread,3,0,3.7342,,airplane,inanim_artificial,0,scrambled,2,7,43,3,1,,,,,,
663eea8e72f4269ddd149eba,2025-08-20_16h24.59.635,GLINT,2024.2.4,MacIntel,59.17159763,,,,,,,,,,,,,,,,,,,,lawnmower,inanim_artificial,2,dog,lawnmower,mushroom,snail,pineapple,train,airplane,cow,avocado,2,1,1.0818,,lawnmower,inanim_artificial,1,scrambled,2,8,44,16,1,,,,,,
663eea8e72f4269ddd149eba,2025-08-20_16h24.59.635,GLINT,2024.2.4,MacIntel,59.17159763,,,,,,,,,,,,,,,,,,,,butterfly,anim_natural,5,avocado,train,lawnmower,pineapple,butterfly,cat,car,corn,snail,5,1,1.1222,,butterfly,anim_natural,1,scrambled,2,9,45,1,1,,,,,,
663eea8e72f4269ddd149eba,2025-08-20_16h24.59.635,GLINT,2024.2.4,MacIntel,59.17159763,,,,,,,,,,,,,,,,,,,,mushroom,inanim_natural,2,avocado,mushroom,bear,car,dog,bread,binoculars,snail,train,2,1,1.3385,,mushroom,inanim_natural,1,scrambled,2,10,46,7,1,,,,,,
663eea8e72f4269ddd149eba,2025-08-20_16h24.59.635,GLINT,2024.2.4,MacIntel,59.17159763,,,,,,,,,,,,,,,,,,,,bear,anim_natural,1,bear,mushroom,bread,butterfly,cat,car,airplane,pineapple,binoculars,1,1,0.8296,,bear,anim_natural,1,scrambled,2,11,47,0,1,,,,,,
663eea8e72f4269ddd149eba,2025-08-20_16h24.59.635,GLINT,2024.2.4,MacIntel,59.17159763,,,,,,,,,,,,,,,,,,,,avocado,inanim_natural,8,apple,bear,lawnmower,cow,butterfly,car,airplane,avocado,pineapple,8,1,1.7038,,avocado,inanim_natural,1,scrambled,2,12,48,11,1,,,,,,
663eea8e72f4269ddd149eba,2025-08-20_16h24.59.635,GLINT,2024.2.4,MacIntel,59.17159763,,,,,,,,,,,,,,,,,,,,car,inanim_artificial,1,car,train,snail,butterfly,apple,cat,lawnmower,corn,pineapple,1,1,1.8478,,car,inanim_artificial,1,scrambled,2,13,49,14,1,,,,,,
663eea8e72f4269ddd149eba,2025-08-20_16h24.59.635,GLINT,2024.2.4,MacIntel,59.17159763,,,,,,,,,,,,,,,,,,,,house,inanim_artificial,6,cow,binoculars,snail,pineapple,dog,house,avocado,car,bread,6,1,2.7248,,house,inanim_artificial,1,scrambled,2,14,50,15,1,,,,,,
663eea8e72f4269ddd149eba,2025-08-20_16h24.59.635,GLINT,2024.2.4,MacIntel,59.17159763,,,,,,,,,,,,,,,,,,,,apple,inanim_natural,1,apple,bread,car,butterfly,airplane,snail,cat,train,mushroom,1,1,0.641,,apple,inanim_natural,1,scrambled,2,15,51,9,1,,,,,,
663eea8e72f4269ddd149eba,2025-08-20_16h24.59.635,GLINT,2024.2.4,MacIntel,59.17159763,,,,,,,,,,,,,,,,,,,,pineapple,inanim_natural,2,lawnmower,pineapple,mushroom,butterfly,bear,bread,dog,train,house,2,1,0.8431,,pineapple,inanim_natural,1,scrambled,2,16,52,8,1,,,,,,
663eea8e72f4269ddd149eba,2025-08-20_16h24.59.635,GLINT,2024.2.4,MacIntel,59.17159763,,,,,,,,,,,,,,,,,,,,cat,anim_natural,9,lawnmower,apple,bear,mushroom,butterfly,pineapple,airplane,car,cat,9,1,2.1002,,cat,anim_natural,1,scrambled,2,17,53,2,1,,,,,,
663eea8e72f4269ddd149eba,2025-08-20_16h24.59.635,GLINT,2024.2.4,MacIntel,59.17159763,,,,,,,,,,,,,,,,,,,,snail,anim_natural,6,train,corn,mushroom,apple,car,snail,cat,dog,house,6,1,1.4865,,snail,anim_natural,1,scrambled,3,0,54,5,1,,,,,,
663eea8e72f4269ddd149eba,2025-08-20_16h24.59.635,GLINT,2024.2.4,MacIntel,59.17159763,,,,,,,,,,,,,,,,,,,,airplane,inanim_artificial,4,dog,cow,corn,airplane,pineapple,butterfly,bread,car,house,3,0,2.1016,,corn,inanim_natural,0,scrambled,3,1,55,12,1,,,,,,
663eea8e72f4269ddd149eba,2025-08-20_16h24.59.635,GLINT,2024.2.4,MacIntel,59.17159763,,,,,,,,,,,,,,,,,,,,pineapple,inanim_natural,1,pineapple,dog,train,bear,cow,mushroom,airplane,lawnmower,bread,1,1,1.8408,,pineapple,inanim_natural,1,scrambled,3,2,56,8,1,,,,,,
663eea8e72f4269ddd149eba,2025-08-20_16h24.59.635,GLINT,2024.2.4,MacIntel,59.17159763,,,,,,,,,,,,,,,,,,,,avocado,inanim_natural,3,lawnmower,corn,avocado,bread,bear,house,car,butterfly,dog,3,1,2.2087,,avocado,inanim_natural,1,scrambled,3,3,57,11,1,,,,,,
663eea8e72f4269ddd149eba,2025-08-20_16h24.59.635,GLINT,2024.2.4,MacIntel,59.17159763,,,,,,,,,,,,,,,,,,,,house,inanim_artificial,1,house,lawnmower,cat,butterfly,cow,avocado,airplane,apple,bread,1,1,2.0782,,house,inanim_artificial,1,scrambled,3,4,58,15,1,,,,,,
663eea8e72f4269ddd149eba,2025-08-20_16h24.59.635,GLINT,2024.2.4,MacIntel,59.17159763,,,,,,,,,,,,,,,,,,,,binoculars,inanim_artificial,3,house,cat,binoculars,bear,lawnmower,cow,apple,mushroom,pineapple,3,1,4.7513,,binoculars,inanim_artificial,1,scrambled,3,5,59,13,1,,,,,,
663eea8e72f4269ddd149eba,2025-08-20_16h24.59.635,GLINT,2024.2.4,MacIntel,59.17159763,,,,,,,,,,,,,,,,,,,,corn,inanim_natural,7,house,cat,snail,mushroom,cow,pineapple,corn,binoculars,train,7,1,2.6307,,corn,inanim_natural,1,scrambled,3,6,60,10,1,,,,,,
663eea8e72f4269ddd149eba,2025-08-20_16h24.59.635,GLINT,2024.2.4,MacIntel,59.17159763,,,,,,,,,,,,,,,,,,,,car,inanim_artificial,9,corn,bear,airplane,cat,pineapple,cow,binoculars,apple,car,9,1,3.0805,,car,inanim_artificial,1,scrambled,3,7,61,14,1,,,,,,
663eea8e72f4269ddd149eba,2025-08-20_16h24.59.635,GLINT,2024.2.4,MacIntel,59.17159763,,,,,,,,,,,,,,,,,,,,butterfly,anim_natural,5,lawnmower,house,car,apple,butterfly,bread,dog,cow,corn,5,1,2.2092,,butterfly,anim_natural,1,scrambled,3,8,62,1,1,,,,,,
663eea8e72f4269ddd149eba,2025-08-20_16h24.59.635,GLINT,2024.2.4,MacIntel,59.17159763,,,,,,,,,,,,,,,,,,,,lawnmower,inanim_artificial,5,pineapple,cow,cat,snail,lawnmower,airplane,binoculars,avocado,apple,5,1,1.541,,lawnmower,inanim_artificial,1,scrambled,3,9,63,16,1,,,,,,
663eea8e72f4269ddd149eba,2025-08-20_16h24.59.635,GLINT,2024.2.4,MacIntel,59.17159763,,,,,,,,,,,,,,,,,,,,apple,inanim_natural,8,cow,lawnmower,house,cat,snail,corn,train,apple,pineapple,8,1,2.8922,,apple,inanim_natural,1,scrambled,3,10,64,9,1,,,,,,
663eea8e72f4269ddd149eba,2025-08-20_16h24.59.635,GLINT,2024.2.4,MacIntel,59.17159763,,,,,,,,,,,,,,,,,,,,train,inanim_artificial,2,mushroom,train,bread,cat,airplane,pineapple,lawnmower,snail,butterfly,2,1,3.3847,,train,inanim_artificial,1,scrambled,3,11,65,17,1,,,,,,
663eea8e72f4269ddd149eba,2025-08-20_16h24.59.635,GLINT,2024.2.4,MacIntel,59.17159763,,,,,,,,,,,,,,,,,,,,cat,anim_natural,2,airplane,cat,avocado,bear,corn,car,train,cow,bread,2,1,0.9438,,cat,anim_natural,1,scrambled,3,12,66,2,1,,,,,,
663eea8e72f4269ddd149eba,2025-08-20_16h24.59.635,GLINT,2024.2.4,MacIntel,59.17159763,,,,,,,,,,,,,,,,,,,,bread,inanim_natural,8,mushroom,car,snail,butterfly,train,lawnmower,cat,bread,apple,8,1,2.0917,,bread,inanim_natural,1,scrambled,3,13,67,6,1,,,,,,
663eea8e72f4269ddd149eba,2025-08-20_16h24.59.635,GLINT,2024.2.4,MacIntel,59.17159763,,,,,,,,,,,,,,,,,,,,bear,anim_natural,4,snail,mushroom,airplane,bear,apple,train,bread,cow,house,4,1,3.5252,,bear,anim_natural,1,scrambled,3,14,68,0,1,,,,,,
663eea8e72f4269ddd149eba,2025-08-20_16h24.59.635,GLINT,2024.2.4,MacIntel,59.17159763,,,,,,,,,,,,,,,,,,,,mushroom,inanim_natural,8,avocado,car,house,cat,corn,dog,airplane,mushroom,butterfly,8,1,1.7846,,mushroom,inanim_natural,1,scrambled,3,15,69,7,1,,,,,,
663eea8e72f4269ddd149eba,2025-08-20_16h24.59.635,GLINT,2024.2.4,MacIntel,59.17159763,,,,,,,,,,,,,,,,,,,,dog,anim_natural,7,avocado,bear,corn,car,binoculars,cow,dog,apple,airplane,7,1,2.5143,,dog,anim_natural,1,scrambled,3,16,70,4,1,,,,,,
663eea8e72f4269ddd149eba,2025-08-20_16h24.59.635,GLINT,2024.2.4,MacIntel,59.17159763,,,,,,,,,,,,,,,,,,,,cow,anim_natural,8,bread,car,dog,butterfly,avocado,corn,binoculars,cow,house,8,1,2.994,,cow,anim_natural,1,scrambled,3,17,71,3,1,,,,,,
663eea8e72f4269ddd149eba,2025-08-20_16h24.59.635,GLINT,2024.2.4,MacIntel,59.17159763,,,,,,,,,,,,,,,,,,,,,,,,,,,,,,,,,,,,,,,,,,,,,0,1,1,2,1,scrambled
663eea8e72f4269ddd149eba,2025-08-20_16h24.59.635,GLINT,2024.2.4,MacIntel,59.17159763,,,,,,,,,,,,,,,,,,,,house,inanim_artificial,9,mushroom,lawnmower,cow,dog,bread,corn,airplane,snail,house,9,1,1.8631,,house,inanim_artificial,1,line_drawing,0,0,0,15,1,,,,,,
663eea8e72f4269ddd149eba,2025-08-20_16h24.59.635,GLINT,2024.2.4,MacIntel,59.17159763,,,,,,,,,,,,,,,,,,,,binoculars,inanim_artificial,6,airplane,car,corn,cat,bear,binoculars,dog,pineapple,avocado,6,1,1.8139,,binoculars,inanim_artificial,1,line_drawing,0,1,1,13,1,,,,,,
663eea8e72f4269ddd149eba,2025-08-20_16h24.59.635,GLINT,2024.2.4,MacIntel,59.17159763,,,,,,,,,,,,,,,,,,,,snail,anim_natural,8,binoculars,bear,airplane,bread,lawnmower,butterfly,pineapple,snail,avocado,8,1,2.0169,,snail,anim_natural,1,line_drawing,0,2,2,5,1,,,,,,
663eea8e72f4269ddd149eba,2025-08-20_16h24.59.635,GLINT,2024.2.4,MacIntel,59.17159763,,,,,,,,,,,,,,,,,,,,cat,anim_natural,2,dog,cat,airplane,lawnmower,train,bread,avocado,butterfly,corn,2,1,1,,cat,anim_natural,1,line_drawing,0,3,3,2,1,,,,,,
663eea8e72f4269ddd149eba,2025-08-20_16h24.59.635,GLINT,2024.2.4,MacIntel,59.17159763,,,,,,,,,,,,,,,,,,,,train,inanim_artificial,8,bear,bread,lawnmower,pineapple,corn,cow,binoculars,train,dog,8,1,1.6639,,train,inanim_artificial,1,line_drawing,0,4,4,17,1,,,,,,
663eea8e72f4269ddd149eba,2025-08-20_16h24.59.635,GLINT,2024.2.4,MacIntel,59.17159763,,,,,,,,,,,,,,,,,,,,car,inanim_artificial,3,mushroom,airplane,car,corn,cat,train,butterfly,pineapple,bear,3,1,1.0538,,car,inanim_artificial,1,line_drawing,0,5,5,14,1,,,,,,
663eea8e72f4269ddd149eba,2025-08-20_16h24.59.635,GLINT,2024.2.4,MacIntel,59.17159763,,,,,,,,,,,,,,,,,,,,apple,inanim_natural,8,train,pineapple,binoculars,butterfly,snail,car,corn,apple,cat,5,0,4.2352,,snail,anim_natural,0,line_drawing,0,6,6,9,1,,,,,,
663eea8e72f4269ddd149eba,2025-08-20_16h24.59.635,GLINT,2024.2.4,MacIntel,59.17159763,,,,,,,,,,,,,,,,,,,,airplane,inanim_artificial,2,lawnmower,airplane,butterfly,bear,train,corn,pineapple,cow,avocado,2,1,1.2648,,airplane,inanim_artificial,1,line_drawing,0,7,7,12,1,,,,,,
663eea8e72f4269ddd149eba,2025-08-20_16h24.59.635,GLINT,2024.2.4,MacIntel,59.17159763,,,,,,,,,,,,,,,,,,,,pineapple,inanim_natural,3,mushroom,apple,pineapple,car,cow,bear,house,airplane,butterfly,3,1,1.8832,,pineapple,inanim_natural,1,line_drawing,0,8,8,8,1,,,,,,
663eea8e72f4269ddd149eba,2025-08-20_16h24.59.635,GLINT,2024.2.4,MacIntel,59.17159763,,,,,,,,,,,,,,,,,,,,corn,inanim_natural,5,pineapple,lawnmower,avocado,dog,corn,car,butterfly,house,snail,5,1,1.1065,,corn,inanim_natural,1,line_drawing,0,9,9,10,1,,,,,,
663eea8e72f4269ddd149eba,2025-08-20_16h24.59.635,GLINT,2024.2.4,MacIntel,59.17159763,,,,,,,,,,,,,,,,,,,,mushroom,inanim_natural,8,snail,cow,binoculars,bread,apple,car,airplane,mushroom,bear,8,1,1.3232,,mushroom,inanim_natural,1,line_drawing,0,10,10,7,1,,,,,,
663eea8e72f4269ddd149eba,2025-08-20_16h24.59.635,GLINT,2024.2.4,MacIntel,59.17159763,,,,,,,,,,,,,,,,,,,,lawnmower,inanim_artificial,7,cow,airplane,bear,pineapple,binoculars,snail,lawnmower,mushroom,corn,7,1,1.6671,,lawnmower,inanim_artificial,1,line_drawing,0,11,11,16,1,,,,,,
663eea8e72f4269ddd149eba,2025-08-20_16h24.59.635,GLINT,2024.2.4,MacIntel,59.17159763,,,,,,,,,,,,,,,,,,,,bread,inanim_natural,7,cat,corn,house,cow,dog,train,bread,car,apple,7,1,3.5254,,bread,inanim_natural,1,line_drawing,0,12,12,6,1,,,,,,
663eea8e72f4269ddd149eba,2025-08-20_16h24.59.635,GLINT,2024.2.4,MacIntel,59.17159763,,,,,,,,,,,,,,,,,,,,cow,anim_natural,9,bear,train,avocado,lawnmower,house,butterfly,corn,pineapple,cow,9,1,1.8871,,cow,anim_natural,1,line_drawing,0,13,13,3,1,,,,,,
663eea8e72f4269ddd149eba,2025-08-20_16h24.59.635,GLINT,2024.2.4,MacIntel,59.17159763,,,,,,,,,,,,,,,,,,,,butterfly,anim_natural,9,bear,airplane,cat,train,mushroom,house,bread,apple,butterfly,,0,,,no response,no response,0,line_drawing,0,14,14,1,1,,,,,,
663eea8e72f4269ddd149eba,2025-08-20_16h24.59.635,GLINT,2024.2.4,MacIntel,59.17159763,,,,,,,,,,,,,,,,,,,,bear,anim_natural,7,bread,butterfly,lawnmower,house,binoculars,mushroom,bear,snail,corn,6,0,1.9001,,mushroom,inanim_natural,0,line_drawing,0,15,15,0,1,,,,,,
663eea8e72f4269ddd149eba,2025-08-20_16h24.59.635,GLINT,2024.2.4,MacIntel,59.17159763,,,,,,,,,,,,,,,,,,,,avocado,inanim_natural,6,bread,corn,lawnmower,cat,house,avocado,car,bear,snail,9,0,1.6324,,snail,anim_natural,0,line_drawing,0,16,16,11,1,,,,,,
663eea8e72f4269ddd149eba,2025-08-20_16h24.59.635,GLINT,2024.2.4,MacIntel,59.17159763,,,,,,,,,,,,,,,,,,,,dog,anim_natural,6,lawnmower,corn,avocado,bread,car,dog,snail,house,bear,6,1,1.6415,,dog,anim_natural,1,line_drawing,0,17,17,4,1,,,,,,
663eea8e72f4269ddd149eba,2025-08-20_16h24.59.635,GLINT,2024.2.4,MacIntel,59.17159763,,,,,,,,,,,,,,,,,,,,house,inanim_artificial,5,cat,mushroom,bread,lawnmower,house,snail,pineapple,car,bear,5,1,1.4968,,house,inanim_artificial,1,line_drawing,1,0,18,15,1,,,,,,
663eea8e72f4269ddd149eba,2025-08-20_16h24.59.635,GLINT,2024.2.4,MacIntel,59.17159763,,,,,,,,,,,,,,,,,,,,dog,anim_natural,1,dog,lawnmower,train,binoculars,mushroom,avocado,cow,butterfly,pineapple,1,1,2.3183,,dog,anim_natural,1,line_drawing,1,1,19,4,1,,,,,,
663eea8e72f4269ddd149eba,2025-08-20_16h24.59.635,GLINT,2024.2.4,MacIntel,59.17159763,,,,,,,,,,,,,,,,,,,,apple,inanim_natural,5,avocado,cow,car,cat,apple,house,snail,mushroom,train,2,0,3.3011,,cow,anim_natural,0,line_drawing,1,2,20,9,1,,,,,,
663eea8e72f4269ddd149eba,2025-08-20_16h24.59.635,GLINT,2024.2.4,MacIntel,59.17159763,,,,,,,,,,,,,,,,,,,,airplane,inanim_artificial,8,train,pineapple,snail,mushroom,dog,binoculars,bear,airplane,apple,8,1,3.1291,,airplane,inanim_artificial,1,line_drawing,1,3,21,12,1,,,,,,
663eea8e72f4269ddd149eba,2025-08-20_16h24.59.635,GLINT,2024.2.4,MacIntel,59.17159763,,,,,,,,,,,,,,,,,,,,bread,inanim_natural,6,car,corn,mushroom,airplane,cat,bread,lawnmower,cow,bear,6,1,2.92,,bread,inanim_natural,1,line_drawing,1,4,22,6,1,,,,,,
663eea8e72f4269ddd149eba,2025-08-20_16h24.59.635,GLINT,2024.2.4,MacIntel,59.17159763,,,,,,,,,,,,,,,,,,,,avocado,inanim_natural,7,snail,airplane,binoculars,house,dog,mushroom,avocado,bread,bear,7,1,2.3509,,avocado,inanim_natural,1,line_drawing,1,5,23,11,1,,,,,,
663eea8e72f4269ddd149eba,2025-08-20_16h24.59.635,GLINT,2024.2.4,MacIntel,59.17159763,,,,,,,,,,,,,,,,,,,,corn,inanim_natural,8,car,lawnmower,cow,binoculars,apple,pineapple,dog,corn,cat,8,1,1.5865,,corn,inanim_natural,1,line_drawing,1,6,24,10,1,,,,,,
663eea8e72f4269ddd149eba,2025-08-20_16h24.59.635,GLINT,2024.2.4,MacIntel,59.17159763,,,,,,,,,,,,,,,,,,,,snail,anim_natural,5,house,airplane,bread,mushroom,snail,binoculars,avocado,bear,dog,5,1,1.6836,,snail,anim_natural,1,line_drawing,1,7,25,5,1,,,,,,
663eea8e72f4269ddd149eba,2025-08-20_16h24.59.635,GLINT,2024.2.4,MacIntel,59.17159763,,,,,,,,,,,,,,,,,,,,pineapple,inanim_natural,7,airplane,train,dog,car,corn,butterfly,pineapple,cat,bread,7,1,1.5629,,pineapple,inanim_natural,1,line_drawing,1,8,26,8,1,,,,,,
663eea8e72f4269ddd149eba,2025-08-20_16h24.59.635,GLINT,2024.2.4,MacIntel,59.17159763,,,,,,,,,,,,,,,,,,,,train,inanim_artificial,2,bread,train,bear,pineapple,butterfly,house,dog,corn,binoculars,2,1,1.0121,,train,inanim_artificial,1,line_drawing,1,9,27,17,1,,,,,,
663eea8e72f4269ddd149eba,2025-08-20_16h24.59.635,GLINT,2024.2.4,MacIntel,59.17159763,,,,,,,,,,,,,,,,,,,,cow,anim_natural,8,binoculars,lawnmower,pineapple,dog,train,bread,snail,cow,apple,8,1,1.3967,,cow,anim_natural,1,line_drawing,1,10,28,3,1,,,,,,
663eea8e72f4269ddd149eba,2025-08-20_16h24.59.635,GLINT,2024.2.4,MacIntel,59.17159763,,,,,,,,,,,,,,,,,,,,lawnmower,inanim_artificial,2,binoculars,lawnmower,snail,avocado,bear,apple,cow,bread,airplane,2,1,1.761,,lawnmower,inanim_artificial,1,line_drawing,1,11,29,16,1,,,,,,
663eea8e72f4269ddd149eba,2025-08-20_16h24.59.635,GLINT,2024.2.4,MacIntel,59.17159763,,,,,,,,,,,,,,,,,,,,bear,anim_natural,1,bear,lawnmower,train,mushroom,corn,pineapple,cat,house,cow,4,0,2.381,,mushroom,inanim_natural,0,line_drawing,1,12,30,0,1,,,,,,
663eea8e72f4269ddd149eba,2025-08-20_16h24.59.635,GLINT,2024.2.4,MacIntel,59.17159763,,,,,,,,,,,,,,,,,,,,butterfly,anim_natural,5,pineapple,mushroom,bread,cat,butterfly,house,snail,car,lawnmower,5,1,2.1516,,butterfly,anim_natural,1,line_drawing,1,13,31,1,1,,,,,,
663eea8e72f4269ddd149eba,2025-08-20_16h24.59.635,GLINT,2024.2.4,MacIntel,59.17159763,,,,,,,,,,,,,,,,,,,,binoculars,inanim_artificial,7,bear,corn,lawnmower,snail,dog,pineapple,binoculars,car,mushroom,7,1,2.0795,,binoculars,inanim_artificial,1,line_drawing,1,14,32,13,1,,,,,,
663eea8e72f4269ddd149eba,2025-08-20_16h24.59.635,GLINT,2024.2.4,MacIntel,59.17159763,,,,,,,,,,,,,,,,,,,,car,inanim_artificial,5,cow,bread,airplane,mushroom,car,house,pineapple,snail,cat,5,1,1.4409,,car,inanim_artificial,1,line_drawing,1,15,33,14,1,,,,,,
663eea8e72f4269ddd149eba,2025-08-20_16h24.59.635,GLINT,2024.2.4,MacIntel,59.17159763,,,,,,,,,,,,,,,,,,,,cat,anim_natural,8,pineapple,snail,lawnmower,house,binoculars,mushroom,butterfly,cat,bread,8,1,1.1837,,cat,anim_natural,1,line_drawing,1,16,34,2,1,,,,,,
663eea8e72f4269ddd149eba,2025-08-20_16h24.59.635,GLINT,2024.2.4,MacIntel,59.17159763,,,,,,,,,,,,,,,,,,,,mushroom,inanim_natural,3,snail,butterfly,mushroom,lawnmower,train,car,bread,dog,avocado,3,1,1.4942,,mushroom,inanim_natural,1,line_drawing,1,17,35,7,1,,,,,,
663eea8e72f4269ddd149eba,2025-08-20_16h24.59.635,GLINT,2024.2.4,MacIntel,59.17159763,,,,,,,,,,,,,,,,,,,,binoculars,inanim_artificial,8,train,bear,butterfly,dog,apple,mushroom,car,binoculars,corn,8,1,1.636,,binoculars,inanim_artificial,1,line_drawing,2,0,36,13,1,,,,,,
663eea8e72f4269ddd149eba,2025-08-20_16h24.59.635,GLINT,2024.2.4,MacIntel,59.17159763,,,,,,,,,,,,,,,,,,,,cow,anim_natural,9,pineapple,butterfly,airplane,house,car,mushroom,bread,cat,cow,9,1,1.6931,,cow,anim_natural,1,line_drawing,2,1,37,3,1,,,,,,
663eea8e72f4269ddd149eba,2025-08-20_16h24.59.635,GLINT,2024.2.4,MacIntel,59.17159763,,,,,,,,,,,,,,,,,,,,bear,anim_natural,3,snail,avocado,bear,train,airplane,butterfly,house,pineapple,bread,3,1,2.3583,,bear,anim_natural,1,line_drawing,2,2,38,0,1,,,,,,
663eea8e72f4269ddd149eba,2025-08-20_16h24.59.635,GLINT,2024.2.4,MacIntel,59.17159763,,,,,,,,,,,,,,,,,,,,airplane,inanim_artificial,3,mushroom,bear,airplane,binoculars,dog,lawnmower,avocado,pineapple,butterfly,3,1,4.2636,,airplane,inanim_artificial,1,line_drawing,2,3,39,12,1,,,,,,
663eea8e72f4269ddd149eba,2025-08-20_16h24.59.635,GLINT,2024.2.4,MacIntel,59.17159763,,,,,,,,,,,,,,,,,,,,cat,anim_natural,7,snail,pineapple,corn,apple,house,cow,cat,train,car,7,1,1.9137,,cat,anim_natural,1,line_drawing,2,4,40,2,1,,,,,,
663eea8e72f4269ddd149eba,2025-08-20_16h24.59.635,GLINT,2024.2.4,MacIntel,59.17159763,,,,,,,,,,,,,,,,,,,,bread,inanim_natural,4,train,cat,airplane,bread,binoculars,bear,avocado,dog,pineapple,3,0,2.4462,,airplane,inanim_artificial,0,line_drawing,2,5,41,6,1,,,,,,
663eea8e72f4269ddd149eba,2025-08-20_16h24.59.635,GLINT,2024.2.4,MacIntel,59.17159763,,,,,,,,,,,,,,,,,,,,dog,anim_natural,2,corn,dog,airplane,bear,mushroom,house,cat,apple,car,2,1,1.1435,,dog,anim_natural,1,line_drawing,2,6,42,4,1,,,,,,
663eea8e72f4269ddd149eba,2025-08-20_16h24.59.635,GLINT,2024.2.4,MacIntel,59.17159763,,,,,,,,,,,,,,,,,,,,house,inanim_artificial,5,bread,cow,airplane,train,house,apple,dog,pineapple,butterfly,5,1,1.6217,,house,inanim_artificial,1,line_drawing,2,7,43,15,1,,,,,,
663eea8e72f4269ddd149eba,2025-08-20_16h24.59.635,GLINT,2024.2.4,MacIntel,59.17159763,,,,,,,,,,,,,,,,,,,,apple,inanim_natural,2,avocado,apple,pineapple,house,car,cow,cat,airplane,dog,1,0,4.0881,,avocado,inanim_natural,1,line_drawing,2,8,44,9,1,,,,,,
663eea8e72f4269ddd149eba,2025-08-20_16h24.59.635,GLINT,2024.2.4,MacIntel,59.17159763,,,,,,,,,,,,,,,,,,,,corn,inanim_natural,1,corn,car,lawnmower,snail,airplane,bear,butterfly,mushroom,apple,1,1,1.3334,,corn,inanim_natural,1,line_drawing,2,9,45,10,1,,,,,,
663eea8e72f4269ddd149eba,2025-08-20_16h24.59.635,GLINT,2024.2.4,MacIntel,59.17159763,,,,,,,,,,,,,,,,,,,,snail,anim_natural,8,pineapple,bread,binoculars,dog,train,apple,cat,snail,car,8,1,1.8817,,snail,anim_natural,1,line_drawing,2,10,46,5,1,,,,,,
663eea8e72f4269ddd149eba,2025-08-20_16h24.59.635,GLINT,2024.2.4,MacIntel,59.17159763,,,,,,,,,,,,,,,,,,,,car,inanim_artificial,9,house,corn,dog,lawnmower,butterfly,pineapple,bread,bear,car,9,1,1.58,,car,inanim_artificial,1,line_drawing,2,11,47,14,1,,,,,,
663eea8e72f4269ddd149eba,2025-08-20_16h24.59.635,GLINT,2024.2.4,MacIntel,59.17159763,,,,,,,,,,,,,,,,,,,,lawnmower,inanim_artificial,5,butterfly,airplane,bread,snail,lawnmower,avocado,binoculars,mushroom,cow,5,1,1.1556,,lawnmower,inanim_artificial,1,line_drawing,2,12,48,16,1,,,,,,
663eea8e72f4269ddd149eba,2025-08-20_16h24.59.635,GLINT,2024.2.4,MacIntel,59.17159763,,,,,,,,,,,,,,,,,,,,butterfly,anim_natural,5,corn,cat,house,apple,butterfly,car,mushroom,dog,airplane,5,1,0.9694,,butterfly,anim_natural,1,line_drawing,2,13,49,1,1,,,,,,
663eea8e72f4269ddd149eba,2025-08-20_16h24.59.635,GLINT,2024.2.4,MacIntel,59.17159763,,,,,,,,,,,,,,,,,,,,mushroom,inanim_natural,8,apple,airplane,avocado,train,house,snail,cow,mushroom,bear,8,1,1.6678,,mushroom,inanim_natural,1,line_drawing,2,14,50,7,1,,,,,,
663eea8e72f4269ddd149eba,2025-08-20_16h24.59.635,GLINT,2024.2.4,MacIntel,59.17159763,,,,,,,,,,,,,,,,,,,,avocado,inanim_natural,7,cow,house,lawnmower,dog,airplane,snail,avocado,apple,pineapple,7,1,1.5813,,avocado,inanim_natural,1,line_drawing,2,15,51,11,1,,,,,,
663eea8e72f4269ddd149eba,2025-08-20_16h24.59.635,GLINT,2024.2.4,MacIntel,59.17159763,,,,,,,,,,,,,,,,,,,,pineapple,inanim_natural,4,apple,binoculars,cow,pineapple,house,corn,cat,lawnmower,snail,4,1,1.6088,,pineapple,inanim_natural,1,line_drawing,2,16,52,8,1,,,,,,
663eea8e72f4269ddd149eba,2025-08-20_16h24.59.635,GLINT,2024.2.4,MacIntel,59.17159763,,,,,,,,,,,,,,,,,,,,train,inanim_artificial,3,dog,corn,train,cow,airplane,mushroom,pineapple,binoculars,snail,3,1,1.3691,,train,inanim_artificial,1,line_drawing,2,17,53,17,1,,,,,,
663eea8e72f4269ddd149eba,2025-08-20_16h24.59.635,GLINT,2024.2.4,MacIntel,59.17159763,,,,,,,,,,,,,,,,,,,,train,inanim_artificial,8,mushroom,car,cow,airplane,bear,apple,dog,train,avocado,8,1,2.2097,,train,inanim_artificial,1,line_drawing,3,0,54,17,1,,,,,,
663eea8e72f4269ddd149eba,2025-08-20_16h24.59.635,GLINT,2024.2.4,MacIntel,59.17159763,,,,,,,,,,,,,,,,,,,,pineapple,inanim_natural,7,binoculars,snail,bread,butterfly,airplane,apple,pineapple,car,bear,7,1,1.615,,pineapple,inanim_natural,1,line_drawing,3,1,55,8,1,,,,,,
663eea8e72f4269ddd149eba,2025-08-20_16h24.59.635,GLINT,2024.2.4,MacIntel,59.17159763,,,,,,,,,,,,,,,,,,,,mushroom,inanim_natural,6,cat,binoculars,house,butterfly,cow,mushroom,pineapple,lawnmower,bread,6,1,1.5516,,mushroom,inanim_natural,1,line_drawing,3,2,56,7,1,,,,,,
663eea8e72f4269ddd149eba,2025-08-20_16h24.59.635,GLINT,2024.2.4,MacIntel,59.17159763,,,,,,,,,,,,,,,,,,,,snail,anim_natural,1,snail,cat,house,dog,mushroom,airplane,apple,binoculars,corn,1,1,2.7492,,snail,anim_natural,1,line_drawing,3,3,57,5,1,,,,,,
663eea8e72f4269ddd149eba,2025-08-20_16h24.59.635,GLINT,2024.2.4,MacIntel,59.17159763,,,,,,,,,,,,,,,,,,,,butterfly,anim_natural,8,mushroom,lawnmower,house,pineapple,dog,airplane,snail,butterfly,apple,8,1,2.1181,,butterfly,anim_natural,1,line_drawing,3,4,58,1,1,,,,,,
663eea8e72f4269ddd149eba,2025-08-20_16h24.59.635,GLINT,2024.2.4,MacIntel,59.17159763,,,,,,,,,,,,,,,,,,,,apple,inanim_natural,2,cat,apple,pineapple,cow,butterfly,car,airplane,mushroom,house,2,1,1.6131,,apple,inanim_natural,1,line_drawing,3,5,59,9,1,,,,,,
663eea8e72f4269ddd149eba,2025-08-20_16h24.59.635,GLINT,2024.2.4,MacIntel,59.17159763,,,,,,,,,,,,,,,,,,,,corn,inanim_natural,5,mushroom,butterfly,house,bread,corn,dog,train,bear,lawnmower,5,1,1.136,,corn,inanim_natural,1,line_drawing,3,6,60,10,1,,,,,,
663eea8e72f4269ddd149eba,2025-08-20_16h24.59.635,GLINT,2024.2.4,MacIntel,59.17159763,,,,,,,,,,,,,,,,,,,,avocado,inanim_natural,6,train,snail,cat,binoculars,house,avocado,corn,bread,cow,6,1,1.9476,,avocado,inanim_natural,1,line_drawing,3,7,61,11,1,,,,,,
663eea8e72f4269ddd149eba,2025-08-20_16h24.59.635,GLINT,2024.2.4,MacIntel,59.17159763,,,,,,,,,,,,,,,,,,,,bear,anim_natural,2,mushroom,bear,train,car,house,snail,cow,bread,apple,2,1,0.9565,,bear,anim_natural,1,line_drawing,3,8,62,0,1,,,,,,
663eea8e72f4269ddd149eba,2025-08-20_16h24.59.635,GLINT,2024.2.4,MacIntel,59.17159763,,,,,,,,,,,,,,,,,,,,car,inanim_artificial,5,train,butterfly,corn,lawnmower,car,dog,avocado,snail,mushroom,5,1,1.265,,car,inanim_artificial,1,line_drawing,3,9,63,14,1,,,,,,
663eea8e72f4269ddd149eba,2025-08-20_16h24.59.635,GLINT,2024.2.4,MacIntel,59.17159763,,,,,,,,,,,,,,,,,,,,dog,anim_natural,2,binoculars,dog,butterfly,car,avocado,cow,corn,pineapple,train,2,1,1.0554,,dog,anim_natural,1,line_drawing,3,10,64,4,1,,,,,,
663eea8e72f4269ddd149eba,2025-08-20_16h24.59.635,GLINT,2024.2.4,MacIntel,59.17159763,,,,,,,,,,,,,,,,,,,,house,inanim_artificial,6,airplane,corn,avocado,train,pineapple,house,cow,snail,butterfly,6,1,3.226,,house,inanim_artificial,1,line_drawing,3,11,65,15,1,,,,,,
663eea8e72f4269ddd149eba,2025-08-20_16h24.59.635,GLINT,2024.2.4,MacIntel,59.17159763,,,,,,,,,,,,,,,,,,,,bread,inanim_natural,1,bread,airplane,apple,cat,dog,butterfly,house,pineapple,train,1,1,1.6082,,bread,inanim_natural,1,line_drawing,3,12,66,6,1,,,,,,
663eea8e72f4269ddd149eba,2025-08-20_16h24.59.635,GLINT,2024.2.4,MacIntel,59.17159763,,,,,,,,,,,,,,,,,,,,cat,anim_natural,3,bear,dog,cat,apple,car,bread,pineapple,train,airplane,3,1,2.2685,,cat,anim_natural,1,line_drawing,3,13,67,2,1,,,,,,
663eea8e72f4269ddd149eba,2025-08-20_16h24.59.635,GLINT,2024.2.4,MacIntel,59.17159763,,,,,,,,,,,,,,,,,,,,lawnmower,inanim_artificial,4,apple,car,butterfly,lawnmower,cat,snail,pineapple,bread,train,4,1,1.5334,,lawnmower,inanim_artificial,1,line_drawing,3,14,68,16,1,,,,,,
663eea8e72f4269ddd149eba,2025-08-20_16h24.59.635,GLINT,2024.2.4,MacIntel,59.17159763,,,,,,,,,,,,,,,,,,,,cow,anim_natural,9,apple,airplane,butterfly,snail,lawnmower,bread,pineapple,train,cow,9,1,1.5174,,cow,anim_natural,1,line_drawing,3,15,69,3,1,,,,,,
663eea8e72f4269ddd149eba,2025-08-20_16h24.59.635,GLINT,2024.2.4,MacIntel,59.17159763,,,,,,,,,,,,,,,,,,,,binoculars,inanim_artificial,7,apple,dog,avocado,cat,pineapple,bear,binoculars,train,lawnmower,7,1,1.4544,,binoculars,inanim_artificial,1,line_drawing,3,16,70,13,1,,,,,,
663eea8e72f4269ddd149eba,2025-08-20_16h24.59.635,GLINT,2024.2.4,MacIntel,59.17159763,,,,,,,,,,,,,,,,,,,,airplane,inanim_artificial,8,pineapple,apple,train,snail,car,cat,bread,airplane,dog,8,1,2.4595,,airplane,inanim_artificial,1,line_drawing,3,17,71,12,1,,,,,,
663eea8e72f4269ddd149eba,2025-08-20_16h24.59.635,GLINT,2024.2.4,MacIntel,59.17159763,,,,,,,,,,,,,,,,,,,,,,,,,,,,,,,,,,,,,,,,,,,,,0,2,2,1,1,line_drawing
