participant,date,expName,psychopyVersion,OS,frameRate,CorrectResponse,prac_prompt_1,prac_prompt_2,prac_prompt_3,prac_prompt_4,prac_prompt_5,prac_prompt_6,prac_prompt_7,prac_prompt_8,prac_prompt_9,prac_key_resp.keys,prac_key_resp.corr,prac_key_resp.rt,prac_key_resp.duration,prac_loop.thisRepN,prac_loop.thisTrialN,prac_loop.thisN,prac_loop.thisIndex,prac_loop.ran,object_class,object_category,corr_ans,prompt_1,prompt_2,prompt_3,prompt_4,prompt_5,prompt_6,prompt_7,prompt_8,prompt_9,key_resp.keys,key_resp.corr,key_resp.rt,key_resp.duration,response_label,response_animacy,corr_animacy,img_condition,test_loop.thisRepN,test_loop.thisTrialN,test_loop.thisN,test_loop.thisIndex,test_loop.ran,randomize_blocks.thisRepN,randomize_blocks.thisTrialN,randomize_blocks.thisN,randomize_blocks.thisIndex,randomize_blocks.ran,block_condition
66bcf6ae07e40789d4193872,2025-08-21_16h40.37.305,GLINT,2024.2.4,Win32,59.88023952,,,,,,,,,,,,,,,,,,,,,,,,,,,,,,,,,,,,,,,,,,,,,,,,,,
66bcf6ae07e40789d4193872,2025-08-21_16h40.37.305,GLINT,2024.2.4,Win32,59.88023952,,,,,,,,,,,,,,,,,,,,,,,,,,,,,,,,,,,,,,,,,,,,,,,,,,
66bcf6ae07e40789d4193872,2025-08-21_16h40.37.305,GLINT,2024.2.4,Win32,59.88023952,,,,,,,,,,,,,,,,,,,,,,,,,,,,,,,,,,,,,,,,,,,,,,,,,,
66bcf6ae07e40789d4193872,2025-08-21_16h40.37.305,GLINT,2024.2.4,Win32,59.88023952,5,dog,bicycle,leaf,flower,duck,chair,truck,tree,hand,5,1,3.3904,,0,0,0,1,1,duck,anim_natural,,,,,,,,,,,,,,,,,,,,,,,,,,,,,
66bcf6ae07e40789d4193872,2025-08-21_16h40.37.305,GLINT,2024.2.4,Win32,59.88023952,9,truck,bicycle,dog,chair,hand,leaf,flower,duck,tree,9,1,3.3679,,0,1,1,4,1,tree,inanim_natural,,,,,,,,,,,,,,,,,,,,,,,,,,,,,
66bcf6ae07e40789d4193872,2025-08-21_16h40.37.305,GLINT,2024.2.4,Win32,59.88023952,7,flower,bicycle,tree,chair,duck,truck,dog,leaf,hand,7,1,3.029,,0,2,2,2,1,dog,anim_natural,,,,,,,,,,,,,,,,,,,,,,,,,,,,,
66bcf6ae07e40789d4193872,2025-08-21_16h40.37.305,GLINT,2024.2.4,Win32,59.88023952,2,hand,flower,dog,chair,truck,leaf,bicycle,tree,duck,3,0,11.3728,,0,3,3,3,1,flower,inanim_natural,,,,,,,,,,,,,,,,,,,,,,,,,,,,,
66bcf6ae07e40789d4193872,2025-08-21_16h40.37.305,GLINT,2024.2.4,Win32,59.88023952,1,hand,flower,chair,tree,duck,truck,bicycle,leaf,dog,1,1,6.3697,,0,4,4,0,1,hand,anim_natural,,,,,,,,,,,,,,,,,,,,,,,,,,,,,
66bcf6ae07e40789d4193872,2025-08-21_16h40.37.305,GLINT,2024.2.4,Win32,59.88023952,,,,,,,,,,,,,,,,,,,,corn,inanim_natural,8,butterfly,bear,dog,pineapple,car,airplane,binoculars,corn,bread,8,1,2.6285,,corn,inanim_natural,1,scrambled,0,0,0,10,1,,,,,,
66bcf6ae07e40789d4193872,2025-08-21_16h40.37.305,GLINT,2024.2.4,Win32,59.88023952,,,,,,,,,,,,,,,,,,,,apple,inanim_natural,9,lawnmower,pineapple,train,butterfly,car,snail,mushroom,dog,apple,9,1,2.779,,apple,inanim_natural,1,scrambled,0,1,1,9,1,,,,,,
66bcf6ae07e40789d4193872,2025-08-21_16h40.37.305,GLINT,2024.2.4,Win32,59.88023952,,,,,,,,,,,,,,,,,,,,butterfly,anim_natural,1,butterfly,train,house,bread,mushroom,corn,dog,lawnmower,snail,1,1,1.9115,,butterfly,anim_natural,1,scrambled,0,2,2,1,1,,,,,,
66bcf6ae07e40789d4193872,2025-08-21_16h40.37.305,GLINT,2024.2.4,Win32,59.88023952,,,,,,,,,,,,,,,,,,,,mushroom,inanim_natural,4,snail,airplane,cat,mushroom,house,bread,dog,train,pineapple,6,0,3.7818,,bread,inanim_natural,1,scrambled,0,3,3,7,1,,,,,,
66bcf6ae07e40789d4193872,2025-08-21_16h40.37.305,GLINT,2024.2.4,Win32,59.88023952,,,,,,,,,,,,,,,,,,,,dog,anim_natural,3,bear,pineapple,dog,bread,lawnmower,binoculars,apple,house,cat,9,0,3.3469,,cat,anim_natural,1,scrambled,0,4,4,4,1,,,,,,
66bcf6ae07e40789d4193872,2025-08-21_16h40.37.305,GLINT,2024.2.4,Win32,59.88023952,,,,,,,,,,,,,,,,,,,,cow,anim_natural,4,binoculars,snail,dog,cow,pineapple,apple,bread,airplane,lawnmower,4,1,2.9579,,cow,anim_natural,1,scrambled,0,5,5,3,1,,,,,,
66bcf6ae07e40789d4193872,2025-08-21_16h40.37.305,GLINT,2024.2.4,Win32,59.88023952,,,,,,,,,,,,,,,,,,,,bread,inanim_natural,8,house,airplane,pineapple,snail,cow,corn,cat,bread,train,5,0,4.5923,,cow,anim_natural,0,scrambled,0,6,6,6,1,,,,,,
66bcf6ae07e40789d4193872,2025-08-21_16h40.37.305,GLINT,2024.2.4,Win32,59.88023952,,,,,,,,,,,,,,,,,,,,car,inanim_artificial,3,lawnmower,snail,car,butterfly,pineapple,bread,corn,train,dog,3,1,3.0443,,car,inanim_artificial,1,scrambled,0,7,7,14,1,,,,,,
66bcf6ae07e40789d4193872,2025-08-21_16h40.37.305,GLINT,2024.2.4,Win32,59.88023952,,,,,,,,,,,,,,,,,,,,train,inanim_artificial,9,avocado,cat,mushroom,butterfly,bread,lawnmower,car,bear,train,9,1,4.0644,,train,inanim_artificial,1,scrambled,0,8,8,17,1,,,,,,
66bcf6ae07e40789d4193872,2025-08-21_16h40.37.305,GLINT,2024.2.4,Win32,59.88023952,,,,,,,,,,,,,,,,,,,,avocado,inanim_natural,8,lawnmower,train,dog,pineapple,cow,airplane,apple,avocado,butterfly,7,0,4.8291,,apple,inanim_natural,1,scrambled,0,9,9,11,1,,,,,,
66bcf6ae07e40789d4193872,2025-08-21_16h40.37.305,GLINT,2024.2.4,Win32,59.88023952,,,,,,,,,,,,,,,,,,,,house,inanim_artificial,1,house,mushroom,train,car,pineapple,dog,butterfly,cat,corn,1,1,2.2241,,house,inanim_artificial,1,scrambled,0,10,10,15,1,,,,,,
66bcf6ae07e40789d4193872,2025-08-21_16h40.37.305,GLINT,2024.2.4,Win32,59.88023952,,,,,,,,,,,,,,,,,,,,pineapple,inanim_natural,9,bear,airplane,corn,bread,butterfly,car,cat,train,pineapple,9,1,3.326,,pineapple,inanim_natural,1,scrambled,0,11,11,8,1,,,,,,
66bcf6ae07e40789d4193872,2025-08-21_16h40.37.305,GLINT,2024.2.4,Win32,59.88023952,,,,,,,,,,,,,,,,,,,,lawnmower,inanim_artificial,1,lawnmower,pineapple,cow,corn,bear,airplane,binoculars,dog,bread,,0,,,no response,no response,0,scrambled,0,12,12,16,1,,,,,,
66bcf6ae07e40789d4193872,2025-08-21_16h40.37.305,GLINT,2024.2.4,Win32,59.88023952,,,,,,,,,,,,,,,,,,,,bear,anim_natural,1,bear,cow,pineapple,apple,car,snail,airplane,corn,house,1,1,1.7116,,bear,anim_natural,1,scrambled,0,13,13,0,1,,,,,,
66bcf6ae07e40789d4193872,2025-08-21_16h40.37.305,GLINT,2024.2.4,Win32,59.88023952,,,,,,,,,,,,,,,,,,,,binoculars,inanim_artificial,6,butterfly,corn,airplane,lawnmower,cow,binoculars,bear,pineapple,bread,6,1,2.5462,,binoculars,inanim_artificial,1,scrambled,0,14,14,13,1,,,,,,
66bcf6ae07e40789d4193872,2025-08-21_16h40.37.305,GLINT,2024.2.4,Win32,59.88023952,,,,,,,,,,,,,,,,,,,,airplane,inanim_artificial,9,dog,apple,house,mushroom,lawnmower,cow,avocado,snail,airplane,9,1,2.6923,,airplane,inanim_artificial,1,scrambled,0,15,15,12,1,,,,,,
66bcf6ae07e40789d4193872,2025-08-21_16h40.37.305,GLINT,2024.2.4,Win32,59.88023952,,,,,,,,,,,,,,,,,,,,snail,anim_natural,3,avocado,mushroom,snail,airplane,train,pineapple,cat,lawnmower,butterfly,3,1,2.7938,,snail,anim_natural,1,scrambled,0,16,16,5,1,,,,,,
66bcf6ae07e40789d4193872,2025-08-21_16h40.37.305,GLINT,2024.2.4,Win32,59.88023952,,,,,,,,,,,,,,,,,,,,cat,anim_natural,3,corn,binoculars,cat,bear,lawnmower,pineapple,apple,house,cow,4,0,3.7751,,bear,anim_natural,1,scrambled,0,17,17,2,1,,,,,,
66bcf6ae07e40789d4193872,2025-08-21_16h40.37.305,GLINT,2024.2.4,Win32,59.88023952,,,,,,,,,,,,,,,,,,,,cow,anim_natural,1,cow,binoculars,car,butterfly,cat,mushroom,train,pineapple,bread,1,1,1.9288,,cow,anim_natural,1,scrambled,1,0,18,3,1,,,,,,
66bcf6ae07e40789d4193872,2025-08-21_16h40.37.305,GLINT,2024.2.4,Win32,59.88023952,,,,,,,,,,,,,,,,,,,,apple,inanim_natural,3,avocado,lawnmower,apple,corn,cat,cow,house,binoculars,bear,3,1,1.9749,,apple,inanim_natural,1,scrambled,1,1,19,9,1,,,,,,
66bcf6ae07e40789d4193872,2025-08-21_16h40.37.305,GLINT,2024.2.4,Win32,59.88023952,,,,,,,,,,,,,,,,,,,,dog,anim_natural,8,cow,train,apple,cat,lawnmower,binoculars,corn,dog,pineapple,4,0,4.1398,,cat,anim_natural,1,scrambled,1,2,20,4,1,,,,,,
66bcf6ae07e40789d4193872,2025-08-21_16h40.37.305,GLINT,2024.2.4,Win32,59.88023952,,,,,,,,,,,,,,,,,,,,corn,inanim_natural,3,avocado,binoculars,corn,snail,airplane,pineapple,bear,dog,train,3,1,1.8946,,corn,inanim_natural,1,scrambled,1,3,21,10,1,,,,,,
66bcf6ae07e40789d4193872,2025-08-21_16h40.37.305,GLINT,2024.2.4,Win32,59.88023952,,,,,,,,,,,,,,,,,,,,pineapple,inanim_natural,9,binoculars,cat,house,lawnmower,bread,bear,apple,snail,pineapple,9,1,1.7773,,pineapple,inanim_natural,1,scrambled,1,4,22,8,1,,,,,,
66bcf6ae07e40789d4193872,2025-08-21_16h40.37.305,GLINT,2024.2.4,Win32,59.88023952,,,,,,,,,,,,,,,,,,,,car,inanim_artificial,7,bread,airplane,butterfly,pineapple,apple,cow,car,train,snail,7,1,3.4644,,car,inanim_artificial,1,scrambled,1,5,23,14,1,,,,,,
66bcf6ae07e40789d4193872,2025-08-21_16h40.37.305,GLINT,2024.2.4,Win32,59.88023952,,,,,,,,,,,,,,,,,,,,bread,inanim_natural,6,train,corn,cow,apple,snail,bread,car,butterfly,lawnmower,6,1,1.6323,,bread,inanim_natural,1,scrambled,1,6,24,6,1,,,,,,
66bcf6ae07e40789d4193872,2025-08-21_16h40.37.305,GLINT,2024.2.4,Win32,59.88023952,,,,,,,,,,,,,,,,,,,,house,inanim_artificial,8,bear,pineapple,butterfly,cow,corn,mushroom,binoculars,house,car,8,1,4.0468,,house,inanim_artificial,1,scrambled,1,7,25,15,1,,,,,,
66bcf6ae07e40789d4193872,2025-08-21_16h40.37.305,GLINT,2024.2.4,Win32,59.88023952,,,,,,,,,,,,,,,,,,,,avocado,inanim_natural,9,pineapple,snail,butterfly,cow,apple,binoculars,house,train,avocado,5,0,4.346,,apple,inanim_natural,1,scrambled,1,8,26,11,1,,,,,,
66bcf6ae07e40789d4193872,2025-08-21_16h40.37.305,GLINT,2024.2.4,Win32,59.88023952,,,,,,,,,,,,,,,,,,,,bear,anim_natural,4,binoculars,pineapple,butterfly,bear,car,bread,airplane,cat,avocado,,0,,,no response,no response,0,scrambled,1,9,27,0,1,,,,,,
66bcf6ae07e40789d4193872,2025-08-21_16h40.37.305,GLINT,2024.2.4,Win32,59.88023952,,,,,,,,,,,,,,,,,,,,train,inanim_artificial,5,corn,cow,bear,cat,train,pineapple,lawnmower,apple,car,3,0,4.6469,,bear,anim_natural,0,scrambled,1,10,28,17,1,,,,,,
66bcf6ae07e40789d4193872,2025-08-21_16h40.37.305,GLINT,2024.2.4,Win32,59.88023952,,,,,,,,,,,,,,,,,,,,cat,anim_natural,5,airplane,train,butterfly,cow,cat,bread,mushroom,binoculars,pineapple,5,1,1.5916,,cat,anim_natural,1,scrambled,1,11,29,2,1,,,,,,
66bcf6ae07e40789d4193872,2025-08-21_16h40.37.305,GLINT,2024.2.4,Win32,59.88023952,,,,,,,,,,,,,,,,,,,,airplane,inanim_artificial,7,lawnmower,avocado,cow,butterfly,binoculars,snail,airplane,corn,pineapple,7,1,2.6601,,airplane,inanim_artificial,1,scrambled,1,12,30,12,1,,,,,,
66bcf6ae07e40789d4193872,2025-08-21_16h40.37.305,GLINT,2024.2.4,Win32,59.88023952,,,,,,,,,,,,,,,,,,,,butterfly,anim_natural,3,lawnmower,apple,butterfly,dog,avocado,train,snail,car,bread,3,1,1.5831,,butterfly,anim_natural,1,scrambled,1,13,31,1,1,,,,,,
66bcf6ae07e40789d4193872,2025-08-21_16h40.37.305,GLINT,2024.2.4,Win32,59.88023952,,,,,,,,,,,,,,,,,,,,snail,anim_natural,2,car,snail,butterfly,mushroom,dog,house,lawnmower,apple,bread,2,1,2.3633,,snail,anim_natural,1,scrambled,1,14,32,5,1,,,,,,
66bcf6ae07e40789d4193872,2025-08-21_16h40.37.305,GLINT,2024.2.4,Win32,59.88023952,,,,,,,,,,,,,,,,,,,,mushroom,inanim_natural,3,lawnmower,cow,mushroom,apple,house,corn,bear,dog,train,,0,,,no response,no response,0,scrambled,1,15,33,7,1,,,,,,
66bcf6ae07e40789d4193872,2025-08-21_16h40.37.305,GLINT,2024.2.4,Win32,59.88023952,,,,,,,,,,,,,,,,,,,,lawnmower,inanim_artificial,5,mushroom,binoculars,bear,bread,lawnmower,cow,avocado,butterfly,car,5,1,2.2283,,lawnmower,inanim_artificial,1,scrambled,1,16,34,16,1,,,,,,
66bcf6ae07e40789d4193872,2025-08-21_16h40.37.305,GLINT,2024.2.4,Win32,59.88023952,,,,,,,,,,,,,,,,,,,,binoculars,inanim_artificial,1,binoculars,snail,butterfly,mushroom,house,bear,airplane,corn,apple,1,1,1.8997,,binoculars,inanim_artificial,1,scrambled,1,17,35,13,1,,,,,,
66bcf6ae07e40789d4193872,2025-08-21_16h40.37.305,GLINT,2024.2.4,Win32,59.88023952,,,,,,,,,,,,,,,,,,,,dog,anim_natural,9,lawnmower,car,avocado,cat,mushroom,airplane,bread,bear,dog,4,0,3.2965,,cat,anim_natural,1,scrambled,2,0,36,4,1,,,,,,
66bcf6ae07e40789d4193872,2025-08-21_16h40.37.305,GLINT,2024.2.4,Win32,59.88023952,,,,,,,,,,,,,,,,,,,,car,inanim_artificial,9,airplane,pineapple,lawnmower,apple,butterfly,mushroom,bear,cat,car,9,1,2.9938,,car,inanim_artificial,1,scrambled,2,1,37,14,1,,,,,,
66bcf6ae07e40789d4193872,2025-08-21_16h40.37.305,GLINT,2024.2.4,Win32,59.88023952,,,,,,,,,,,,,,,,,,,,house,inanim_artificial,1,house,corn,butterfly,car,train,cow,dog,bread,avocado,1,1,3.6109,,house,inanim_artificial,1,scrambled,2,2,38,15,1,,,,,,
66bcf6ae07e40789d4193872,2025-08-21_16h40.37.305,GLINT,2024.2.4,Win32,59.88023952,,,,,,,,,,,,,,,,,,,,avocado,inanim_natural,7,lawnmower,train,corn,bear,airplane,cat,avocado,mushroom,dog,1,0,3.1611,,lawnmower,inanim_artificial,0,scrambled,2,3,39,11,1,,,,,,
66bcf6ae07e40789d4193872,2025-08-21_16h40.37.305,GLINT,2024.2.4,Win32,59.88023952,,,,,,,,,,,,,,,,,,,,bear,anim_natural,7,pineapple,binoculars,avocado,bread,airplane,car,bear,cat,dog,7,1,2.0985,,bear,anim_natural,1,scrambled,2,4,40,0,1,,,,,,
66bcf6ae07e40789d4193872,2025-08-21_16h40.37.305,GLINT,2024.2.4,Win32,59.88023952,,,,,,,,,,,,,,,,,,,,train,inanim_artificial,9,pineapple,cat,bear,dog,bread,apple,binoculars,house,train,9,1,3.9437,,train,inanim_artificial,1,scrambled,2,5,41,17,1,,,,,,
66bcf6ae07e40789d4193872,2025-08-21_16h40.37.305,GLINT,2024.2.4,Win32,59.88023952,,,,,,,,,,,,,,,,,,,,cow,anim_natural,3,binoculars,house,cow,bread,car,cat,avocado,butterfly,corn,3,1,1.7103,,cow,anim_natural,1,scrambled,2,6,42,3,1,,,,,,
66bcf6ae07e40789d4193872,2025-08-21_16h40.37.305,GLINT,2024.2.4,Win32,59.88023952,,,,,,,,,,,,,,,,,,,,butterfly,anim_natural,8,car,bread,cow,lawnmower,bear,apple,airplane,butterfly,corn,8,1,2.1798,,butterfly,anim_natural,1,scrambled,2,7,43,1,1,,,,,,
66bcf6ae07e40789d4193872,2025-08-21_16h40.37.305,GLINT,2024.2.4,Win32,59.88023952,,,,,,,,,,,,,,,,,,,,snail,anim_natural,6,avocado,lawnmower,airplane,house,bread,snail,apple,bear,cat,6,1,2.2515,,snail,anim_natural,1,scrambled,2,8,44,5,1,,,,,,
66bcf6ae07e40789d4193872,2025-08-21_16h40.37.305,GLINT,2024.2.4,Win32,59.88023952,,,,,,,,,,,,,,,,,,,,apple,inanim_natural,6,cat,binoculars,lawnmower,cow,car,apple,dog,avocado,pineapple,6,1,4.0757,,apple,inanim_natural,1,scrambled,2,9,45,9,1,,,,,,
66bcf6ae07e40789d4193872,2025-08-21_16h40.37.305,GLINT,2024.2.4,Win32,59.88023952,,,,,,,,,,,,,,,,,,,,mushroom,inanim_natural,6,car,bear,dog,pineapple,binoculars,mushroom,airplane,butterfly,avocado,,0,,,no response,no response,0,scrambled,2,10,46,7,1,,,,,,
66bcf6ae07e40789d4193872,2025-08-21_16h40.37.305,GLINT,2024.2.4,Win32,59.88023952,,,,,,,,,,,,,,,,,,,,bread,inanim_natural,9,train,cow,pineapple,airplane,dog,binoculars,avocado,snail,bread,9,1,3.0231,,bread,inanim_natural,1,scrambled,2,11,47,6,1,,,,,,
66bcf6ae07e40789d4193872,2025-08-21_16h40.37.305,GLINT,2024.2.4,Win32,59.88023952,,,,,,,,,,,,,,,,,,,,airplane,inanim_artificial,2,cat,airplane,car,bread,corn,bear,avocado,cow,train,2,1,2.9602,,airplane,inanim_artificial,1,scrambled,2,12,48,12,1,,,,,,
66bcf6ae07e40789d4193872,2025-08-21_16h40.37.305,GLINT,2024.2.4,Win32,59.88023952,,,,,,,,,,,,,,,,,,,,pineapple,inanim_natural,1,pineapple,butterfly,train,binoculars,mushroom,avocado,dog,cow,lawnmower,1,1,2.1758,,pineapple,inanim_natural,1,scrambled,2,13,49,8,1,,,,,,
66bcf6ae07e40789d4193872,2025-08-21_16h40.37.305,GLINT,2024.2.4,Win32,59.88023952,,,,,,,,,,,,,,,,,,,,lawnmower,inanim_artificial,6,snail,airplane,mushroom,pineapple,car,lawnmower,bear,bread,cat,5,0,1.6423,,car,inanim_artificial,1,scrambled,2,14,50,16,1,,,,,,
66bcf6ae07e40789d4193872,2025-08-21_16h40.37.305,GLINT,2024.2.4,Win32,59.88023952,,,,,,,,,,,,,,,,,,,,binoculars,inanim_artificial,2,bread,binoculars,airplane,dog,mushroom,cow,cat,car,avocado,2,1,1.9471,,binoculars,inanim_artificial,1,scrambled,2,15,51,13,1,,,,,,
66bcf6ae07e40789d4193872,2025-08-21_16h40.37.305,GLINT,2024.2.4,Win32,59.88023952,,,,,,,,,,,,,,,,,,,,corn,inanim_natural,9,bread,cow,apple,dog,bear,binoculars,lawnmower,car,corn,9,1,2.6289,,corn,inanim_natural,1,scrambled,2,16,52,10,1,,,,,,
66bcf6ae07e40789d4193872,2025-08-21_16h40.37.305,GLINT,2024.2.4,Win32,59.88023952,,,,,,,,,,,,,,,,,,,,cat,anim_natural,5,corn,car,bear,train,cat,apple,binoculars,cow,bread,5,1,1.4943,,cat,anim_natural,1,scrambled,2,17,53,2,1,,,,,,
66bcf6ae07e40789d4193872,2025-08-21_16h40.37.305,GLINT,2024.2.4,Win32,59.88023952,,,,,,,,,,,,,,,,,,,,pineapple,inanim_natural,9,butterfly,apple,binoculars,lawnmower,cow,airplane,bread,snail,pineapple,8,0,3.3076,,snail,anim_natural,0,scrambled,3,0,54,8,1,,,,,,
66bcf6ae07e40789d4193872,2025-08-21_16h40.37.305,GLINT,2024.2.4,Win32,59.88023952,,,,,,,,,,,,,,,,,,,,house,inanim_artificial,8,lawnmower,binoculars,snail,apple,cat,avocado,corn,house,cow,8,1,2.5264,,house,inanim_artificial,1,scrambled,3,1,55,15,1,,,,,,
66bcf6ae07e40789d4193872,2025-08-21_16h40.37.305,GLINT,2024.2.4,Win32,59.88023952,,,,,,,,,,,,,,,,,,,,apple,inanim_natural,9,lawnmower,bread,airplane,butterfly,bear,pineapple,car,snail,apple,9,1,2.2751,,apple,inanim_natural,1,scrambled,3,2,56,9,1,,,,,,
66bcf6ae07e40789d4193872,2025-08-21_16h40.37.305,GLINT,2024.2.4,Win32,59.88023952,,,,,,,,,,,,,,,,,,,,bread,inanim_natural,9,house,train,butterfly,bear,corn,airplane,dog,avocado,bread,9,1,4.0619,,bread,inanim_natural,1,scrambled,3,3,57,6,1,,,,,,
66bcf6ae07e40789d4193872,2025-08-21_16h40.37.305,GLINT,2024.2.4,Win32,59.88023952,,,,,,,,,,,,,,,,,,,,corn,inanim_natural,9,cat,car,binoculars,avocado,pineapple,dog,butterfly,house,corn,9,1,1.7626,,corn,inanim_natural,1,scrambled,3,4,58,10,1,,,,,,
66bcf6ae07e40789d4193872,2025-08-21_16h40.37.305,GLINT,2024.2.4,Win32,59.88023952,,,,,,,,,,,,,,,,,,,,car,inanim_artificial,1,car,airplane,mushroom,binoculars,pineapple,butterfly,avocado,snail,cow,6,0,3.1601,,butterfly,anim_natural,0,scrambled,3,5,59,14,1,,,,,,
66bcf6ae07e40789d4193872,2025-08-21_16h40.37.305,GLINT,2024.2.4,Win32,59.88023952,,,,,,,,,,,,,,,,,,,,cat,anim_natural,7,dog,lawnmower,bear,avocado,car,mushroom,cat,binoculars,corn,7,1,2.3118,,cat,anim_natural,1,scrambled,3,6,60,2,1,,,,,,
66bcf6ae07e40789d4193872,2025-08-21_16h40.37.305,GLINT,2024.2.4,Win32,59.88023952,,,,,,,,,,,,,,,,,,,,lawnmower,inanim_artificial,5,airplane,avocado,cat,snail,lawnmower,apple,house,bear,pineapple,5,1,1.6986,,lawnmower,inanim_artificial,1,scrambled,3,7,61,16,1,,,,,,
66bcf6ae07e40789d4193872,2025-08-21_16h40.37.305,GLINT,2024.2.4,Win32,59.88023952,,,,,,,,,,,,,,,,,,,,airplane,inanim_artificial,1,airplane,butterfly,bear,binoculars,snail,bread,avocado,house,mushroom,1,1,3.698,,airplane,inanim_artificial,1,scrambled,3,8,62,12,1,,,,,,
66bcf6ae07e40789d4193872,2025-08-21_16h40.37.305,GLINT,2024.2.4,Win32,59.88023952,,,,,,,,,,,,,,,,,,,,bear,anim_natural,5,avocado,corn,binoculars,pineapple,bear,house,butterfly,dog,train,5,1,1.2822,,bear,anim_natural,1,scrambled,3,9,63,0,1,,,,,,
66bcf6ae07e40789d4193872,2025-08-21_16h40.37.305,GLINT,2024.2.4,Win32,59.88023952,,,,,,,,,,,,,,,,,,,,dog,anim_natural,4,snail,apple,airplane,dog,corn,cat,house,mushroom,lawnmower,4,1,2.0251,,dog,anim_natural,1,scrambled,3,10,64,4,1,,,,,,
66bcf6ae07e40789d4193872,2025-08-21_16h40.37.305,GLINT,2024.2.4,Win32,59.88023952,,,,,,,,,,,,,,,,,,,,train,inanim_artificial,5,house,bread,airplane,apple,train,pineapple,dog,bear,cat,5,1,2.0432,,train,inanim_artificial,1,scrambled,3,11,65,17,1,,,,,,
66bcf6ae07e40789d4193872,2025-08-21_16h40.37.305,GLINT,2024.2.4,Win32,59.88023952,,,,,,,,,,,,,,,,,,,,snail,anim_natural,4,cat,car,avocado,snail,house,train,apple,bread,butterfly,4,1,1.9309,,snail,anim_natural,1,scrambled,3,12,66,5,1,,,,,,
66bcf6ae07e40789d4193872,2025-08-21_16h40.37.305,GLINT,2024.2.4,Win32,59.88023952,,,,,,,,,,,,,,,,,,,,avocado,inanim_natural,5,butterfly,pineapple,bread,airplane,avocado,bear,dog,house,train,5,1,1.4783,,avocado,inanim_natural,1,scrambled,3,13,67,11,1,,,,,,
66bcf6ae07e40789d4193872,2025-08-21_16h40.37.305,GLINT,2024.2.4,Win32,59.88023952,,,,,,,,,,,,,,,,,,,,cow,anim_natural,9,pineapple,mushroom,car,snail,dog,airplane,binoculars,avocado,cow,9,1,2.3819,,cow,anim_natural,1,scrambled,3,14,68,3,1,,,,,,
66bcf6ae07e40789d4193872,2025-08-21_16h40.37.305,GLINT,2024.2.4,Win32,59.88023952,,,,,,,,,,,,,,,,,,,,mushroom,inanim_natural,3,snail,corn,mushroom,cow,house,lawnmower,car,bear,pineapple,3,1,3.4794,,mushroom,inanim_natural,1,scrambled,3,15,69,7,1,,,,,,
66bcf6ae07e40789d4193872,2025-08-21_16h40.37.305,GLINT,2024.2.4,Win32,59.88023952,,,,,,,,,,,,,,,,,,,,binoculars,inanim_artificial,8,bread,airplane,snail,bear,dog,car,pineapple,binoculars,apple,8,1,2.1828,,binoculars,inanim_artificial,1,scrambled,3,16,70,13,1,,,,,,
66bcf6ae07e40789d4193872,2025-08-21_16h40.37.305,GLINT,2024.2.4,Win32,59.88023952,,,,,,,,,,,,,,,,,,,,butterfly,anim_natural,7,binoculars,bread,lawnmower,dog,pineapple,train,butterfly,avocado,snail,7,1,2.9812,,butterfly,anim_natural,1,scrambled,3,17,71,1,1,,,,,,
66bcf6ae07e40789d4193872,2025-08-21_16h40.37.305,GLINT,2024.2.4,Win32,59.88023952,,,,,,,,,,,,,,,,,,,,,,,,,,,,,,,,,,,,,,,,,,,,,0,0,0,2,1,scrambled
66bcf6ae07e40789d4193872,2025-08-21_16h40.37.305,GLINT,2024.2.4,Win32,59.88023952,,,,,,,,,,,,,,,,,,,,airplane,inanim_artificial,3,cow,car,airplane,corn,snail,bear,apple,mushroom,lawnmower,3,1,2.1907,,airplane,inanim_artificial,1,line_drawing,0,0,0,12,1,,,,,,
66bcf6ae07e40789d4193872,2025-08-21_16h40.37.305,GLINT,2024.2.4,Win32,59.88023952,,,,,,,,,,,,,,,,,,,,corn,inanim_natural,8,avocado,mushroom,bear,house,snail,dog,binoculars,corn,car,8,1,2.6215,,corn,inanim_natural,1,line_drawing,0,1,1,10,1,,,,,,
66bcf6ae07e40789d4193872,2025-08-21_16h40.37.305,GLINT,2024.2.4,Win32,59.88023952,,,,,,,,,,,,,,,,,,,,butterfly,anim_natural,2,pineapple,butterfly,house,dog,corn,train,snail,airplane,mushroom,2,1,1.6372,,butterfly,anim_natural,1,line_drawing,0,2,2,1,1,,,,,,
66bcf6ae07e40789d4193872,2025-08-21_16h40.37.305,GLINT,2024.2.4,Win32,59.88023952,,,,,,,,,,,,,,,,,,,,snail,anim_natural,9,avocado,airplane,bread,apple,bear,train,butterfly,car,snail,9,1,2.1836,,snail,anim_natural,1,line_drawing,0,3,3,5,1,,,,,,
66bcf6ae07e40789d4193872,2025-08-21_16h40.37.305,GLINT,2024.2.4,Win32,59.88023952,,,,,,,,,,,,,,,,,,,,pineapple,inanim_natural,5,apple,train,bear,corn,pineapple,cow,binoculars,butterfly,car,5,1,2.0558,,pineapple,inanim_natural,1,line_drawing,0,4,4,8,1,,,,,,
66bcf6ae07e40789d4193872,2025-08-21_16h40.37.305,GLINT,2024.2.4,Win32,59.88023952,,,,,,,,,,,,,,,,,,,,cat,anim_natural,6,bear,car,avocado,dog,bread,cat,lawnmower,train,apple,6,1,1.6923,,cat,anim_natural,1,line_drawing,0,5,5,2,1,,,,,,
66bcf6ae07e40789d4193872,2025-08-21_16h40.37.305,GLINT,2024.2.4,Win32,59.88023952,,,,,,,,,,,,,,,,,,,,dog,anim_natural,2,cow,dog,avocado,corn,snail,mushroom,train,lawnmower,house,2,1,1.9375,,dog,anim_natural,1,line_drawing,0,6,6,4,1,,,,,,
66bcf6ae07e40789d4193872,2025-08-21_16h40.37.305,GLINT,2024.2.4,Win32,59.88023952,,,,,,,,,,,,,,,,,,,,bear,anim_natural,2,snail,bear,corn,car,airplane,apple,dog,avocado,house,,0,,,no response,no response,0,line_drawing,0,7,7,0,1,,,,,,
66bcf6ae07e40789d4193872,2025-08-21_16h40.37.305,GLINT,2024.2.4,Win32,59.88023952,,,,,,,,,,,,,,,,,,,,avocado,inanim_natural,1,avocado,binoculars,cow,apple,corn,snail,cat,train,airplane,1,1,3.7772,,avocado,inanim_natural,1,line_drawing,0,8,8,11,1,,,,,,
66bcf6ae07e40789d4193872,2025-08-21_16h40.37.305,GLINT,2024.2.4,Win32,59.88023952,,,,,,,,,,,,,,,,,,,,binoculars,inanim_artificial,3,bear,cat,binoculars,train,corn,avocado,house,pineapple,dog,3,1,2.783,,binoculars,inanim_artificial,1,line_drawing,0,9,9,13,1,,,,,,
66bcf6ae07e40789d4193872,2025-08-21_16h40.37.305,GLINT,2024.2.4,Win32,59.88023952,,,,,,,,,,,,,,,,,,,,car,inanim_artificial,2,pineapple,car,dog,corn,butterfly,airplane,cow,train,apple,2,1,2.8402,,car,inanim_artificial,1,line_drawing,0,10,10,14,1,,,,,,
66bcf6ae07e40789d4193872,2025-08-21_16h40.37.305,GLINT,2024.2.4,Win32,59.88023952,,,,,,,,,,,,,,,,,,,,mushroom,inanim_natural,6,dog,car,cat,snail,house,mushroom,pineapple,avocado,binoculars,6,1,1.8294,,mushroom,inanim_natural,1,line_drawing,0,11,11,7,1,,,,,,
66bcf6ae07e40789d4193872,2025-08-21_16h40.37.305,GLINT,2024.2.4,Win32,59.88023952,,,,,,,,,,,,,,,,,,,,house,inanim_artificial,4,pineapple,butterfly,mushroom,house,bread,airplane,cat,dog,train,4,1,3.5959,,house,inanim_artificial,1,line_drawing,0,12,12,15,1,,,,,,
66bcf6ae07e40789d4193872,2025-08-21_16h40.37.305,GLINT,2024.2.4,Win32,59.88023952,,,,,,,,,,,,,,,,,,,,train,inanim_artificial,1,train,dog,binoculars,airplane,apple,snail,mushroom,bread,cow,1,1,1.9961,,train,inanim_artificial,1,line_drawing,0,13,13,17,1,,,,,,
66bcf6ae07e40789d4193872,2025-08-21_16h40.37.305,GLINT,2024.2.4,Win32,59.88023952,,,,,,,,,,,,,,,,,,,,cow,anim_natural,7,snail,airplane,butterfly,mushroom,binoculars,apple,cow,car,bread,7,1,2.522,,cow,anim_natural,1,line_drawing,0,14,14,3,1,,,,,,
66bcf6ae07e40789d4193872,2025-08-21_16h40.37.305,GLINT,2024.2.4,Win32,59.88023952,,,,,,,,,,,,,,,,,,,,apple,inanim_natural,4,house,binoculars,cow,apple,mushroom,pineapple,car,butterfly,dog,,0,,,no response,no response,0,line_drawing,0,15,15,9,1,,,,,,
66bcf6ae07e40789d4193872,2025-08-21_16h40.37.305,GLINT,2024.2.4,Win32,59.88023952,,,,,,,,,,,,,,,,,,,,lawnmower,inanim_artificial,3,dog,pineapple,lawnmower,butterfly,cat,binoculars,car,mushroom,corn,3,1,2.1786,,lawnmower,inanim_artificial,1,line_drawing,0,16,16,16,1,,,,,,
66bcf6ae07e40789d4193872,2025-08-21_16h40.37.305,GLINT,2024.2.4,Win32,59.88023952,,,,,,,,,,,,,,,,,,,,bread,inanim_natural,7,pineapple,train,bear,dog,apple,airplane,bread,snail,binoculars,7,1,3.3099,,bread,inanim_natural,1,line_drawing,0,17,17,6,1,,,,,,
66bcf6ae07e40789d4193872,2025-08-21_16h40.37.305,GLINT,2024.2.4,Win32,59.88023952,,,,,,,,,,,,,,,,,,,,binoculars,inanim_artificial,7,pineapple,cat,snail,car,dog,train,binoculars,apple,mushroom,7,1,2.2792,,binoculars,inanim_artificial,1,line_drawing,1,0,18,13,1,,,,,,
66bcf6ae07e40789d4193872,2025-08-21_16h40.37.305,GLINT,2024.2.4,Win32,59.88023952,,,,,,,,,,,,,,,,,,,,cow,anim_natural,4,pineapple,train,bear,cow,corn,apple,cat,lawnmower,airplane,4,1,2.3274,,cow,anim_natural,1,line_drawing,1,1,19,3,1,,,,,,
66bcf6ae07e40789d4193872,2025-08-21_16h40.37.305,GLINT,2024.2.4,Win32,59.88023952,,,,,,,,,,,,,,,,,,,,corn,inanim_natural,1,corn,cat,car,snail,bear,bread,pineapple,airplane,binoculars,1,1,2.8506,,corn,inanim_natural,1,line_drawing,1,2,20,10,1,,,,,,
66bcf6ae07e40789d4193872,2025-08-21_16h40.37.305,GLINT,2024.2.4,Win32,59.88023952,,,,,,,,,,,,,,,,,,,,dog,anim_natural,8,corn,pineapple,train,snail,butterfly,mushroom,lawnmower,dog,house,8,1,2.0649,,dog,anim_natural,1,line_drawing,1,3,21,4,1,,,,,,
66bcf6ae07e40789d4193872,2025-08-21_16h40.37.305,GLINT,2024.2.4,Win32,59.88023952,,,,,,,,,,,,,,,,,,,,car,inanim_artificial,2,apple,car,cow,bread,cat,binoculars,house,pineapple,butterfly,2,1,1.5373,,car,inanim_artificial,1,line_drawing,1,4,22,14,1,,,,,,
66bcf6ae07e40789d4193872,2025-08-21_16h40.37.305,GLINT,2024.2.4,Win32,59.88023952,,,,,,,,,,,,,,,,,,,,avocado,inanim_natural,4,cat,butterfly,corn,avocado,bear,binoculars,lawnmower,airplane,mushroom,4,1,2.2641,,avocado,inanim_natural,1,line_drawing,1,5,23,11,1,,,,,,
66bcf6ae07e40789d4193872,2025-08-21_16h40.37.305,GLINT,2024.2.4,Win32,59.88023952,,,,,,,,,,,,,,,,,,,,airplane,inanim_artificial,8,lawnmower,cat,dog,butterfly,pineapple,house,mushroom,airplane,corn,8,1,2.8449,,airplane,inanim_artificial,1,line_drawing,1,6,24,12,1,,,,,,
66bcf6ae07e40789d4193872,2025-08-21_16h40.37.305,GLINT,2024.2.4,Win32,59.88023952,,,,,,,,,,,,,,,,,,,,house,inanim_artificial,1,house,lawnmower,train,bear,corn,cow,mushroom,cat,avocado,1,1,2.3376,,house,inanim_artificial,1,line_drawing,1,7,25,15,1,,,,,,
66bcf6ae07e40789d4193872,2025-08-21_16h40.37.305,GLINT,2024.2.4,Win32,59.88023952,,,,,,,,,,,,,,,,,,,,cat,anim_natural,3,lawnmower,apple,cat,butterfly,car,mushroom,corn,bear,train,8,0,2.5688,,bear,anim_natural,1,line_drawing,1,8,26,2,1,,,,,,
66bcf6ae07e40789d4193872,2025-08-21_16h40.37.305,GLINT,2024.2.4,Win32,59.88023952,,,,,,,,,,,,,,,,,,,,butterfly,anim_natural,9,dog,train,apple,house,cat,bread,binoculars,corn,butterfly,9,1,2.5901,,butterfly,anim_natural,1,line_drawing,1,9,27,1,1,,,,,,
66bcf6ae07e40789d4193872,2025-08-21_16h40.37.305,GLINT,2024.2.4,Win32,59.88023952,,,,,,,,,,,,,,,,,,,,mushroom,inanim_natural,2,airplane,mushroom,binoculars,cow,butterfly,house,dog,pineapple,bread,6,0,1.6569,,house,inanim_artificial,0,line_drawing,1,10,28,7,1,,,,,,
66bcf6ae07e40789d4193872,2025-08-21_16h40.37.305,GLINT,2024.2.4,Win32,59.88023952,,,,,,,,,,,,,,,,,,,,train,inanim_artificial,2,pineapple,train,binoculars,airplane,cow,mushroom,dog,snail,avocado,4,0,3.1506,,airplane,inanim_artificial,1,line_drawing,1,11,29,17,1,,,,,,
66bcf6ae07e40789d4193872,2025-08-21_16h40.37.305,GLINT,2024.2.4,Win32,59.88023952,,,,,,,,,,,,,,,,,,,,snail,anim_natural,6,airplane,car,bread,train,apple,snail,butterfly,cow,avocado,6,1,2.6148,,snail,anim_natural,1,line_drawing,1,12,30,5,1,,,,,,
66bcf6ae07e40789d4193872,2025-08-21_16h40.37.305,GLINT,2024.2.4,Win32,59.88023952,,,,,,,,,,,,,,,,,,,,pineapple,inanim_natural,9,corn,binoculars,car,train,butterfly,cow,avocado,cat,pineapple,9,1,1.9509,,pineapple,inanim_natural,1,line_drawing,1,13,31,8,1,,,,,,
66bcf6ae07e40789d4193872,2025-08-21_16h40.37.305,GLINT,2024.2.4,Win32,59.88023952,,,,,,,,,,,,,,,,,,,,bread,inanim_natural,9,car,airplane,pineapple,apple,train,snail,dog,cow,bread,4,0,3.4273,,apple,inanim_natural,1,line_drawing,1,14,32,6,1,,,,,,
66bcf6ae07e40789d4193872,2025-08-21_16h40.37.305,GLINT,2024.2.4,Win32,59.88023952,,,,,,,,,,,,,,,,,,,,apple,inanim_natural,8,cat,bear,lawnmower,house,cow,corn,airplane,apple,avocado,8,1,2.7103,,apple,inanim_natural,1,line_drawing,1,15,33,9,1,,,,,,
66bcf6ae07e40789d4193872,2025-08-21_16h40.37.305,GLINT,2024.2.4,Win32,59.88023952,,,,,,,,,,,,,,,,,,,,lawnmower,inanim_artificial,2,house,lawnmower,car,bear,mushroom,snail,dog,bread,corn,2,1,1.5251,,lawnmower,inanim_artificial,1,line_drawing,1,16,34,16,1,,,,,,
66bcf6ae07e40789d4193872,2025-08-21_16h40.37.305,GLINT,2024.2.4,Win32,59.88023952,,,,,,,,,,,,,,,,,,,,bear,anim_natural,8,avocado,cow,house,lawnmower,butterfly,pineapple,airplane,bear,apple,8,1,2.2094,,bear,anim_natural,1,line_drawing,1,17,35,0,1,,,,,,
66bcf6ae07e40789d4193872,2025-08-21_16h40.37.305,GLINT,2024.2.4,Win32,59.88023952,,,,,,,,,,,,,,,,,,,,dog,anim_natural,6,cat,bear,airplane,mushroom,lawnmower,dog,train,avocado,bread,6,1,2.7368,,dog,anim_natural,1,line_drawing,2,0,36,4,1,,,,,,
66bcf6ae07e40789d4193872,2025-08-21_16h40.37.305,GLINT,2024.2.4,Win32,59.88023952,,,,,,,,,,,,,,,,,,,,train,inanim_artificial,4,pineapple,mushroom,lawnmower,train,cat,airplane,snail,avocado,bear,4,1,2.6454,,train,inanim_artificial,1,line_drawing,2,1,37,17,1,,,,,,
66bcf6ae07e40789d4193872,2025-08-21_16h40.37.305,GLINT,2024.2.4,Win32,59.88023952,,,,,,,,,,,,,,,,,,,,bear,anim_natural,4,butterfly,binoculars,bread,bear,apple,dog,train,lawnmower,mushroom,4,1,3.8184,,bear,anim_natural,1,line_drawing,2,2,38,0,1,,,,,,
66bcf6ae07e40789d4193872,2025-08-21_16h40.37.305,GLINT,2024.2.4,Win32,59.88023952,,,,,,,,,,,,,,,,,,,,bread,inanim_natural,9,pineapple,train,airplane,dog,corn,house,cat,butterfly,bread,9,1,3.0062,,bread,inanim_natural,1,line_drawing,2,3,39,6,1,,,,,,
66bcf6ae07e40789d4193872,2025-08-21_16h40.37.305,GLINT,2024.2.4,Win32,59.88023952,,,,,,,,,,,,,,,,,,,,pineapple,inanim_natural,9,lawnmower,snail,airplane,car,bear,cat,apple,avocado,pineapple,9,1,2.0046,,pineapple,inanim_natural,1,line_drawing,2,4,40,8,1,,,,,,
66bcf6ae07e40789d4193872,2025-08-21_16h40.37.305,GLINT,2024.2.4,Win32,59.88023952,,,,,,,,,,,,,,,,,,,,snail,anim_natural,7,butterfly,cow,airplane,mushroom,binoculars,corn,snail,lawnmower,pineapple,7,1,2.3971,,snail,anim_natural,1,line_drawing,2,5,41,5,1,,,,,,
66bcf6ae07e40789d4193872,2025-08-21_16h40.37.305,GLINT,2024.2.4,Win32,59.88023952,,,,,,,,,,,,,,,,,,,,corn,inanim_natural,3,lawnmower,cat,corn,dog,airplane,bear,pineapple,bread,train,3,1,3.3354,,corn,inanim_natural,1,line_drawing,2,6,42,10,1,,,,,,
66bcf6ae07e40789d4193872,2025-08-21_16h40.37.305,GLINT,2024.2.4,Win32,59.88023952,,,,,,,,,,,,,,,,,,,,cow,anim_natural,3,train,binoculars,cow,mushroom,house,cat,dog,bread,avocado,3,1,4.0725,,cow,anim_natural,1,line_drawing,2,7,43,3,1,,,,,,
66bcf6ae07e40789d4193872,2025-08-21_16h40.37.305,GLINT,2024.2.4,Win32,59.88023952,,,,,,,,,,,,,,,,,,,,mushroom,inanim_natural,9,house,apple,airplane,cow,bread,binoculars,cat,snail,mushroom,5,0,1.9139,,bread,inanim_natural,1,line_drawing,2,8,44,7,1,,,,,,
66bcf6ae07e40789d4193872,2025-08-21_16h40.37.305,GLINT,2024.2.4,Win32,59.88023952,,,,,,,,,,,,,,,,,,,,apple,inanim_natural,4,pineapple,avocado,lawnmower,apple,dog,snail,binoculars,cow,house,5,0,2.2414,,dog,anim_natural,0,line_drawing,2,9,45,9,1,,,,,,
66bcf6ae07e40789d4193872,2025-08-21_16h40.37.305,GLINT,2024.2.4,Win32,59.88023952,,,,,,,,,,,,,,,,,,,,car,inanim_artificial,9,train,snail,dog,house,avocado,cow,bread,pineapple,car,9,1,2.4004,,car,inanim_artificial,1,line_drawing,2,10,46,14,1,,,,,,
66bcf6ae07e40789d4193872,2025-08-21_16h40.37.305,GLINT,2024.2.4,Win32,59.88023952,,,,,,,,,,,,,,,,,,,,butterfly,anim_natural,6,avocado,snail,bear,pineapple,train,butterfly,apple,airplane,house,6,1,1.6502,,butterfly,anim_natural,1,line_drawing,2,11,47,1,1,,,,,,
66bcf6ae07e40789d4193872,2025-08-21_16h40.37.305,GLINT,2024.2.4,Win32,59.88023952,,,,,,,,,,,,,,,,,,,,airplane,inanim_artificial,2,binoculars,airplane,train,cow,butterfly,bread,mushroom,cat,apple,2,1,2.0021,,airplane,inanim_artificial,1,line_drawing,2,12,48,12,1,,,,,,
66bcf6ae07e40789d4193872,2025-08-21_16h40.37.305,GLINT,2024.2.4,Win32,59.88023952,,,,,,,,,,,,,,,,,,,,house,inanim_artificial,9,avocado,snail,binoculars,car,bear,dog,bread,pineapple,house,9,1,2.8563,,house,inanim_artificial,1,line_drawing,2,13,49,15,1,,,,,,
66bcf6ae07e40789d4193872,2025-08-21_16h40.37.305,GLINT,2024.2.4,Win32,59.88023952,,,,,,,,,,,,,,,,,,,,cat,anim_natural,9,pineapple,bread,airplane,bear,car,snail,house,corn,cat,9,1,2.3451,,cat,anim_natural,1,line_drawing,2,14,50,2,1,,,,,,
66bcf6ae07e40789d4193872,2025-08-21_16h40.37.305,GLINT,2024.2.4,Win32,59.88023952,,,,,,,,,,,,,,,,,,,,lawnmower,inanim_artificial,7,cow,snail,mushroom,car,bear,binoculars,lawnmower,apple,corn,7,1,2.3337,,lawnmower,inanim_artificial,1,line_drawing,2,15,51,16,1,,,,,,
66bcf6ae07e40789d4193872,2025-08-21_16h40.37.305,GLINT,2024.2.4,Win32,59.88023952,,,,,,,,,,,,,,,,,,,,avocado,inanim_natural,1,avocado,binoculars,bear,mushroom,lawnmower,train,apple,butterfly,cat,1,1,2.0542,,avocado,inanim_natural,1,line_drawing,2,16,52,11,1,,,,,,
66bcf6ae07e40789d4193872,2025-08-21_16h40.37.305,GLINT,2024.2.4,Win32,59.88023952,,,,,,,,,,,,,,,,,,,,binoculars,inanim_artificial,7,cat,snail,train,car,bread,avocado,binoculars,cow,mushroom,7,1,2.2678,,binoculars,inanim_artificial,1,line_drawing,2,17,53,13,1,,,,,,
66bcf6ae07e40789d4193872,2025-08-21_16h40.37.305,GLINT,2024.2.4,Win32,59.88023952,,,,,,,,,,,,,,,,,,,,airplane,inanim_artificial,3,corn,bear,airplane,dog,snail,train,apple,house,pineapple,3,1,2.6228,,airplane,inanim_artificial,1,line_drawing,3,0,54,12,1,,,,,,
66bcf6ae07e40789d4193872,2025-08-21_16h40.37.305,GLINT,2024.2.4,Win32,59.88023952,,,,,,,,,,,,,,,,,,,,cat,anim_natural,8,cow,apple,house,train,bread,snail,car,cat,avocado,8,1,2.1542,,cat,anim_natural,1,line_drawing,3,1,55,2,1,,,,,,
66bcf6ae07e40789d4193872,2025-08-21_16h40.37.305,GLINT,2024.2.4,Win32,59.88023952,,,,,,,,,,,,,,,,,,,,mushroom,inanim_natural,6,pineapple,binoculars,airplane,cat,butterfly,mushroom,avocado,train,bear,6,1,1.7327,,mushroom,inanim_natural,1,line_drawing,3,2,56,7,1,,,,,,
66bcf6ae07e40789d4193872,2025-08-21_16h40.37.305,GLINT,2024.2.4,Win32,59.88023952,,,,,,,,,,,,,,,,,,,,cow,anim_natural,3,snail,lawnmower,cow,mushroom,house,bread,butterfly,binoculars,pineapple,3,1,1.7712,,cow,anim_natural,1,line_drawing,3,3,57,3,1,,,,,,
66bcf6ae07e40789d4193872,2025-08-21_16h40.37.305,GLINT,2024.2.4,Win32,59.88023952,,,,,,,,,,,,,,,,,,,,butterfly,anim_natural,4,cat,lawnmower,pineapple,butterfly,cow,airplane,binoculars,apple,bread,4,1,2.5188,,butterfly,anim_natural,1,line_drawing,3,4,58,1,1,,,,,,
66bcf6ae07e40789d4193872,2025-08-21_16h40.37.305,GLINT,2024.2.4,Win32,59.88023952,,,,,,,,,,,,,,,,,,,,binoculars,inanim_artificial,4,corn,pineapple,cat,binoculars,house,butterfly,bread,train,cow,4,1,2.0273,,binoculars,inanim_artificial,1,line_drawing,3,5,59,13,1,,,,,,
66bcf6ae07e40789d4193872,2025-08-21_16h40.37.305,GLINT,2024.2.4,Win32,59.88023952,,,,,,,,,,,,,,,,,,,,corn,inanim_natural,8,apple,house,cow,car,mushroom,cat,airplane,corn,dog,8,1,3.0562,,corn,inanim_natural,1,line_drawing,3,6,60,10,1,,,,,,
66bcf6ae07e40789d4193872,2025-08-21_16h40.37.305,GLINT,2024.2.4,Win32,59.88023952,,,,,,,,,,,,,,,,,,,,car,inanim_artificial,9,binoculars,house,cow,snail,cat,mushroom,bread,pineapple,car,9,1,2.841,,car,inanim_artificial,1,line_drawing,3,7,61,14,1,,,,,,
66bcf6ae07e40789d4193872,2025-08-21_16h40.37.305,GLINT,2024.2.4,Win32,59.88023952,,,,,,,,,,,,,,,,,,,,lawnmower,inanim_artificial,6,bear,pineapple,airplane,bread,train,lawnmower,cat,snail,avocado,6,1,1.6714,,lawnmower,inanim_artificial,1,line_drawing,3,8,62,16,1,,,,,,
66bcf6ae07e40789d4193872,2025-08-21_16h40.37.305,GLINT,2024.2.4,Win32,59.88023952,,,,,,,,,,,,,,,,,,,,avocado,inanim_natural,4,butterfly,snail,lawnmower,avocado,bread,cat,house,apple,binoculars,4,1,2.3467,,avocado,inanim_natural,1,line_drawing,3,9,63,11,1,,,,,,
66bcf6ae07e40789d4193872,2025-08-21_16h40.37.305,GLINT,2024.2.4,Win32,59.88023952,,,,,,,,,,,,,,,,,,,,dog,anim_natural,9,airplane,bear,snail,bread,avocado,car,apple,train,dog,9,1,2.7822,,dog,anim_natural,1,line_drawing,3,10,64,4,1,,,,,,
66bcf6ae07e40789d4193872,2025-08-21_16h40.37.305,GLINT,2024.2.4,Win32,59.88023952,,,,,,,,,,,,,,,,,,,,bear,anim_natural,7,lawnmower,train,avocado,pineapple,car,apple,bear,snail,dog,7,1,2.57,,bear,anim_natural,1,line_drawing,3,11,65,0,1,,,,,,
66bcf6ae07e40789d4193872,2025-08-21_16h40.37.305,GLINT,2024.2.4,Win32,59.88023952,,,,,,,,,,,,,,,,,,,,train,inanim_artificial,3,mushroom,cow,train,airplane,apple,bread,binoculars,snail,bear,3,1,4.5218,,train,inanim_artificial,1,line_drawing,3,12,66,17,1,,,,,,
66bcf6ae07e40789d4193872,2025-08-21_16h40.37.305,GLINT,2024.2.4,Win32,59.88023952,,,,,,,,,,,,,,,,,,,,bread,inanim_natural,3,apple,cat,bread,corn,train,car,airplane,cow,dog,3,1,3.8101,,bread,inanim_natural,1,line_drawing,3,13,67,6,1,,,,,,
66bcf6ae07e40789d4193872,2025-08-21_16h40.37.305,GLINT,2024.2.4,Win32,59.88023952,,,,,,,,,,,,,,,,,,,,snail,anim_natural,7,house,pineapple,car,dog,mushroom,train,snail,bear,apple,7,1,1.9941,,snail,anim_natural,1,line_drawing,3,14,68,5,1,,,,,,
66bcf6ae07e40789d4193872,2025-08-21_16h40.37.305,GLINT,2024.2.4,Win32,59.88023952,,,,,,,,,,,,,,,,,,,,pineapple,inanim_natural,2,butterfly,pineapple,binoculars,dog,avocado,car,cow,lawnmower,mushroom,2,1,1.8509,,pineapple,inanim_natural,1,line_drawing,3,15,69,8,1,,,,,,
66bcf6ae07e40789d4193872,2025-08-21_16h40.37.305,GLINT,2024.2.4,Win32,59.88023952,,,,,,,,,,,,,,,,,,,,apple,inanim_natural,1,apple,car,bread,butterfly,avocado,dog,train,binoculars,bear,5,0,2.238,,avocado,inanim_natural,1,line_drawing,3,16,70,9,1,,,,,,
66bcf6ae07e40789d4193872,2025-08-21_16h40.37.305,GLINT,2024.2.4,Win32,59.88023952,,,,,,,,,,,,,,,,,,,,house,inanim_artificial,5,butterfly,cat,apple,mushroom,house,snail,lawnmower,binoculars,bread,5,1,1.5821,,house,inanim_artificial,1,line_drawing,3,17,71,15,1,,,,,,
66bcf6ae07e40789d4193872,2025-08-21_16h40.37.305,GLINT,2024.2.4,Win32,59.88023952,,,,,,,,,,,,,,,,,,,,,,,,,,,,,,,,,,,,,,,,,,,,,0,1,1,1,1,line_drawing
66bcf6ae07e40789d4193872,2025-08-21_16h40.37.305,GLINT,2024.2.4,Win32,59.88023952,,,,,,,,,,,,,,,,,,,,house,inanim_artificial,1,house,bear,cow,corn,bread,apple,binoculars,butterfly,airplane,1,1,2.4521,,house,inanim_artificial,1,natural,0,0,0,15,1,,,,,,
66bcf6ae07e40789d4193872,2025-08-21_16h40.37.305,GLINT,2024.2.4,Win32,59.88023952,,,,,,,,,,,,,,,,,,,,mushroom,inanim_natural,6,car,cat,cow,corn,bear,mushroom,airplane,avocado,lawnmower,6,1,1.8851,,mushroom,inanim_natural,1,natural,0,1,1,7,1,,,,,,
66bcf6ae07e40789d4193872,2025-08-21_16h40.37.305,GLINT,2024.2.4,Win32,59.88023952,,,,,,,,,,,,,,,,,,,,cow,anim_natural,1,cow,bear,airplane,avocado,car,mushroom,cat,binoculars,apple,1,1,3.3685,,cow,anim_natural,1,natural,0,2,2,3,1,,,,,,
66bcf6ae07e40789d4193872,2025-08-21_16h40.37.305,GLINT,2024.2.4,Win32,59.88023952,,,,,,,,,,,,,,,,,,,,binoculars,inanim_artificial,8,apple,cat,house,avocado,cow,train,corn,binoculars,bear,8,1,2.4015,,binoculars,inanim_artificial,1,natural,0,3,3,13,1,,,,,,
66bcf6ae07e40789d4193872,2025-08-21_16h40.37.305,GLINT,2024.2.4,Win32,59.88023952,,,,,,,,,,,,,,,,,,,,bread,inanim_natural,9,airplane,apple,butterfly,train,dog,avocado,car,snail,bread,9,1,2.3199,,bread,inanim_natural,1,natural,0,4,4,6,1,,,,,,
66bcf6ae07e40789d4193872,2025-08-21_16h40.37.305,GLINT,2024.2.4,Win32,59.88023952,,,,,,,,,,,,,,,,,,,,butterfly,anim_natural,2,mushroom,butterfly,binoculars,cow,snail,avocado,lawnmower,train,corn,2,1,2.0042,,butterfly,anim_natural,1,natural,0,5,5,1,1,,,,,,
66bcf6ae07e40789d4193872,2025-08-21_16h40.37.305,GLINT,2024.2.4,Win32,59.88023952,,,,,,,,,,,,,,,,,,,,snail,anim_natural,1,snail,corn,car,lawnmower,dog,bear,mushroom,binoculars,bread,1,1,2.4524,,snail,anim_natural,1,natural,0,6,6,5,1,,,,,,
66bcf6ae07e40789d4193872,2025-08-21_16h40.37.305,GLINT,2024.2.4,Win32,59.88023952,,,,,,,,,,,,,,,,,,,,bear,anim_natural,1,bear,dog,binoculars,corn,mushroom,house,cat,pineapple,train,1,1,3.8754,,bear,anim_natural,1,natural,0,7,7,0,1,,,,,,
66bcf6ae07e40789d4193872,2025-08-21_16h40.37.305,GLINT,2024.2.4,Win32,59.88023952,,,,,,,,,,,,,,,,,,,,apple,inanim_natural,2,mushroom,apple,bear,snail,lawnmower,pineapple,train,car,dog,2,1,1.4373,,apple,inanim_natural,1,natural,0,8,8,9,1,,,,,,
66bcf6ae07e40789d4193872,2025-08-21_16h40.37.305,GLINT,2024.2.4,Win32,59.88023952,,,,,,,,,,,,,,,,,,,,pineapple,inanim_natural,5,cow,avocado,bread,dog,pineapple,cat,lawnmower,house,car,5,1,1.7525,,pineapple,inanim_natural,1,natural,0,9,9,8,1,,,,,,
66bcf6ae07e40789d4193872,2025-08-21_16h40.37.305,GLINT,2024.2.4,Win32,59.88023952,,,,,,,,,,,,,,,,,,,,car,inanim_artificial,8,corn,house,bear,pineapple,avocado,cat,binoculars,car,snail,8,1,2.0856,,car,inanim_artificial,1,natural,0,10,10,14,1,,,,,,
66bcf6ae07e40789d4193872,2025-08-21_16h40.37.305,GLINT,2024.2.4,Win32,59.88023952,,,,,,,,,,,,,,,,,,,,corn,inanim_natural,5,apple,bread,snail,cow,corn,bear,lawnmower,train,binoculars,5,1,2.2515,,corn,inanim_natural,1,natural,0,11,11,10,1,,,,,,
66bcf6ae07e40789d4193872,2025-08-21_16h40.37.305,GLINT,2024.2.4,Win32,59.88023952,,,,,,,,,,,,,,,,,,,,avocado,inanim_natural,5,cow,dog,train,snail,avocado,pineapple,mushroom,car,house,5,1,1.4844,,avocado,inanim_natural,1,natural,0,12,12,11,1,,,,,,
66bcf6ae07e40789d4193872,2025-08-21_16h40.37.305,GLINT,2024.2.4,Win32,59.88023952,,,,,,,,,,,,,,,,,,,,lawnmower,inanim_artificial,2,cat,lawnmower,mushroom,pineapple,binoculars,corn,train,dog,cow,2,1,1.7401,,lawnmower,inanim_artificial,1,natural,0,13,13,16,1,,,,,,
66bcf6ae07e40789d4193872,2025-08-21_16h40.37.305,GLINT,2024.2.4,Win32,59.88023952,,,,,,,,,,,,,,,,,,,,dog,anim_natural,9,butterfly,avocado,binoculars,car,cow,airplane,corn,apple,dog,9,1,1.938,,dog,anim_natural,1,natural,0,14,14,4,1,,,,,,
66bcf6ae07e40789d4193872,2025-08-21_16h40.37.305,GLINT,2024.2.4,Win32,59.88023952,,,,,,,,,,,,,,,,,,,,cat,anim_natural,1,cat,binoculars,car,bread,butterfly,apple,corn,snail,airplane,1,1,2.1873,,cat,anim_natural,1,natural,0,15,15,2,1,,,,,,
66bcf6ae07e40789d4193872,2025-08-21_16h40.37.305,GLINT,2024.2.4,Win32,59.88023952,,,,,,,,,,,,,,,,,,,,airplane,inanim_artificial,1,airplane,cat,bread,avocado,mushroom,lawnmower,house,butterfly,snail,1,1,2.53,,airplane,inanim_artificial,1,natural,0,16,16,12,1,,,,,,
66bcf6ae07e40789d4193872,2025-08-21_16h40.37.305,GLINT,2024.2.4,Win32,59.88023952,,,,,,,,,,,,,,,,,,,,train,inanim_artificial,5,house,pineapple,bear,apple,train,snail,butterfly,airplane,avocado,5,1,2.0459,,train,inanim_artificial,1,natural,0,17,17,17,1,,,,,,
66bcf6ae07e40789d4193872,2025-08-21_16h40.37.305,GLINT,2024.2.4,Win32,59.88023952,,,,,,,,,,,,,,,,,,,,house,inanim_artificial,5,butterfly,mushroom,corn,lawnmower,house,bear,cat,binoculars,pineapple,5,1,1.375,,house,inanim_artificial,1,natural,1,0,18,15,1,,,,,,
66bcf6ae07e40789d4193872,2025-08-21_16h40.37.305,GLINT,2024.2.4,Win32,59.88023952,,,,,,,,,,,,,,,,,,,,butterfly,anim_natural,9,car,avocado,binoculars,snail,pineapple,mushroom,cow,airplane,butterfly,9,1,2.7935,,butterfly,anim_natural,1,natural,1,1,19,1,1,,,,,,
66bcf6ae07e40789d4193872,2025-08-21_16h40.37.305,GLINT,2024.2.4,Win32,59.88023952,,,,,,,,,,,,,,,,,,,,lawnmower,inanim_artificial,3,pineapple,dog,lawnmower,train,mushroom,car,apple,bear,cat,3,1,2.1138,,lawnmower,inanim_artificial,1,natural,1,2,20,16,1,,,,,,
66bcf6ae07e40789d4193872,2025-08-21_16h40.37.305,GLINT,2024.2.4,Win32,59.88023952,,,,,,,,,,,,,,,,,,,,airplane,inanim_artificial,4,bread,pineapple,lawnmower,airplane,cow,dog,avocado,snail,binoculars,4,1,2.7465,,airplane,inanim_artificial,1,natural,1,3,21,12,1,,,,,,
66bcf6ae07e40789d4193872,2025-08-21_16h40.37.305,GLINT,2024.2.4,Win32,59.88023952,,,,,,,,,,,,,,,,,,,,apple,inanim_natural,6,lawnmower,avocado,mushroom,train,bear,apple,butterfly,dog,car,6,1,2.7786,,apple,inanim_natural,1,natural,1,4,22,9,1,,,,,,
66bcf6ae07e40789d4193872,2025-08-21_16h40.37.305,GLINT,2024.2.4,Win32,59.88023952,,,,,,,,,,,,,,,,,,,,bear,anim_natural,1,bear,cow,corn,lawnmower,bread,airplane,butterfly,pineapple,train,1,1,2.6938,,bear,anim_natural,1,natural,1,5,23,0,1,,,,,,
66bcf6ae07e40789d4193872,2025-08-21_16h40.37.305,GLINT,2024.2.4,Win32,59.88023952,,,,,,,,,,,,,,,,,,,,cat,anim_natural,8,pineapple,cow,airplane,corn,apple,train,binoculars,cat,dog,8,1,1.935,,cat,anim_natural,1,natural,1,6,24,2,1,,,,,,
66bcf6ae07e40789d4193872,2025-08-21_16h40.37.305,GLINT,2024.2.4,Win32,59.88023952,,,,,,,,,,,,,,,,,,,,train,inanim_artificial,3,house,corn,train,car,pineapple,apple,cow,cat,snail,3,1,2.965,,train,inanim_artificial,1,natural,1,7,25,17,1,,,,,,
66bcf6ae07e40789d4193872,2025-08-21_16h40.37.305,GLINT,2024.2.4,Win32,59.88023952,,,,,,,,,,,,,,,,,,,,cow,anim_natural,9,airplane,pineapple,car,cat,snail,corn,binoculars,bread,cow,9,1,1.9015,,cow,anim_natural,1,natural,1,8,26,3,1,,,,,,
66bcf6ae07e40789d4193872,2025-08-21_16h40.37.305,GLINT,2024.2.4,Win32,59.88023952,,,,,,,,,,,,,,,,,,,,avocado,inanim_natural,7,cat,apple,house,train,dog,binoculars,avocado,snail,mushroom,7,1,2.0931,,avocado,inanim_natural,1,natural,1,9,27,11,1,,,,,,
66bcf6ae07e40789d4193872,2025-08-21_16h40.37.305,GLINT,2024.2.4,Win32,59.88023952,,,,,,,,,,,,,,,,,,,,binoculars,inanim_artificial,5,bear,airplane,dog,corn,binoculars,train,cow,bread,pineapple,5,1,1.8965,,binoculars,inanim_artificial,1,natural,1,10,28,13,1,,,,,,
66bcf6ae07e40789d4193872,2025-08-21_16h40.37.305,GLINT,2024.2.4,Win32,59.88023952,,,,,,,,,,,,,,,,,,,,bread,inanim_natural,7,binoculars,lawnmower,butterfly,car,dog,snail,bread,apple,pineapple,7,1,2.6937,,bread,inanim_natural,1,natural,1,11,29,6,1,,,,,,
66bcf6ae07e40789d4193872,2025-08-21_16h40.37.305,GLINT,2024.2.4,Win32,59.88023952,,,,,,,,,,,,,,,,,,,,corn,inanim_natural,4,dog,cat,binoculars,corn,car,bear,apple,train,avocado,4,1,2.1779,,corn,inanim_natural,1,natural,1,12,30,10,1,,,,,,
66bcf6ae07e40789d4193872,2025-08-21_16h40.37.305,GLINT,2024.2.4,Win32,59.88023952,,,,,,,,,,,,,,,,,,,,mushroom,inanim_natural,4,bear,house,airplane,mushroom,avocado,butterfly,snail,binoculars,apple,,0,,,no response,no response,0,natural,1,13,31,7,1,,,,,,
66bcf6ae07e40789d4193872,2025-08-21_16h40.37.305,GLINT,2024.2.4,Win32,59.88023952,,,,,,,,,,,,,,,,,,,,pineapple,inanim_natural,3,mushroom,car,pineapple,bear,corn,snail,cat,train,airplane,3,1,3.496,,pineapple,inanim_natural,1,natural,1,14,32,8,1,,,,,,
66bcf6ae07e40789d4193872,2025-08-21_16h40.37.305,GLINT,2024.2.4,Win32,59.88023952,,,,,,,,,,,,,,,,,,,,car,inanim_artificial,1,car,avocado,bear,airplane,bread,cat,house,apple,dog,1,1,4.7767,,car,inanim_artificial,1,natural,1,15,33,14,1,,,,,,
66bcf6ae07e40789d4193872,2025-08-21_16h40.37.305,GLINT,2024.2.4,Win32,59.88023952,,,,,,,,,,,,,,,,,,,,dog,anim_natural,2,avocado,dog,mushroom,bread,cat,airplane,butterfly,lawnmower,car,2,1,2.9467,,dog,anim_natural,1,natural,1,16,34,4,1,,,,,,
66bcf6ae07e40789d4193872,2025-08-21_16h40.37.305,GLINT,2024.2.4,Win32,59.88023952,,,,,,,,,,,,,,,,,,,,snail,anim_natural,5,house,butterfly,pineapple,airplane,snail,car,bread,mushroom,cow,5,1,2.2611,,snail,anim_natural,1,natural,1,17,35,5,1,,,,,,
66bcf6ae07e40789d4193872,2025-08-21_16h40.37.305,GLINT,2024.2.4,Win32,59.88023952,,,,,,,,,,,,,,,,,,,,mushroom,inanim_natural,3,bear,bread,mushroom,cow,apple,butterfly,airplane,house,car,3,1,2.2133,,mushroom,inanim_natural,1,natural,2,0,36,7,1,,,,,,
66bcf6ae07e40789d4193872,2025-08-21_16h40.37.305,GLINT,2024.2.4,Win32,59.88023952,,,,,,,,,,,,,,,,,,,,airplane,inanim_artificial,6,binoculars,apple,train,cat,corn,airplane,bear,cow,bread,2,0,3.7621,,apple,inanim_natural,0,natural,2,1,37,12,1,,,,,,
66bcf6ae07e40789d4193872,2025-08-21_16h40.37.305,GLINT,2024.2.4,Win32,59.88023952,,,,,,,,,,,,,,,,,,,,binoculars,inanim_artificial,1,binoculars,bear,lawnmower,pineapple,airplane,cat,corn,bread,butterfly,1,1,1.9458,,binoculars,inanim_artificial,1,natural,2,2,38,13,1,,,,,,
66bcf6ae07e40789d4193872,2025-08-21_16h40.37.305,GLINT,2024.2.4,Win32,59.88023952,,,,,,,,,,,,,,,,,,,,lawnmower,inanim_artificial,6,snail,bear,dog,corn,pineapple,lawnmower,mushroom,house,car,6,1,2.0113,,lawnmower,inanim_artificial,1,natural,2,3,39,16,1,,,,,,
66bcf6ae07e40789d4193872,2025-08-21_16h40.37.305,GLINT,2024.2.4,Win32,59.88023952,,,,,,,,,,,,,,,,,,,,bear,anim_natural,7,mushroom,butterfly,cat,pineapple,avocado,binoculars,bear,house,car,7,1,2.7416,,bear,anim_natural,1,natural,2,4,40,0,1,,,,,,
66bcf6ae07e40789d4193872,2025-08-21_16h40.37.305,GLINT,2024.2.4,Win32,59.88023952,,,,,,,,,,,,,,,,,,,,train,inanim_artificial,5,house,corn,mushroom,bear,train,cow,cat,binoculars,pineapple,5,1,1.4428,,train,inanim_artificial,1,natural,2,5,41,17,1,,,,,,
66bcf6ae07e40789d4193872,2025-08-21_16h40.37.305,GLINT,2024.2.4,Win32,59.88023952,,,,,,,,,,,,,,,,,,,,corn,inanim_natural,2,bread,corn,binoculars,cow,bear,train,apple,dog,car,2,1,2.1132,,corn,inanim_natural,1,natural,2,6,42,10,1,,,,,,
66bcf6ae07e40789d4193872,2025-08-21_16h40.37.305,GLINT,2024.2.4,Win32,59.88023952,,,,,,,,,,,,,,,,,,,,cow,anim_natural,6,train,apple,butterfly,house,pineapple,cow,binoculars,dog,mushroom,6,1,2.1123,,cow,anim_natural,1,natural,2,7,43,3,1,,,,,,
66bcf6ae07e40789d4193872,2025-08-21_16h40.37.305,GLINT,2024.2.4,Win32,59.88023952,,,,,,,,,,,,,,,,,,,,pineapple,inanim_natural,3,car,cat,pineapple,train,snail,apple,house,mushroom,dog,3,1,2.1292,,pineapple,inanim_natural,1,natural,2,8,44,8,1,,,,,,
66bcf6ae07e40789d4193872,2025-08-21_16h40.37.305,GLINT,2024.2.4,Win32,59.88023952,,,,,,,,,,,,,,,,,,,,avocado,inanim_natural,6,binoculars,apple,cat,cow,lawnmower,avocado,dog,airplane,corn,6,1,2.0628,,avocado,inanim_natural,1,natural,2,9,45,11,1,,,,,,
66bcf6ae07e40789d4193872,2025-08-21_16h40.37.305,GLINT,2024.2.4,Win32,59.88023952,,,,,,,,,,,,,,,,,,,,bread,inanim_natural,3,cat,mushroom,bread,car,airplane,pineapple,lawnmower,snail,bear,3,1,3.6441,,bread,inanim_natural,1,natural,2,10,46,6,1,,,,,,
66bcf6ae07e40789d4193872,2025-08-21_16h40.37.305,GLINT,2024.2.4,Win32,59.88023952,,,,,,,,,,,,,,,,,,,,snail,anim_natural,2,binoculars,snail,mushroom,pineapple,bread,airplane,cat,car,bear,2,1,1.5648,,snail,anim_natural,1,natural,2,11,47,5,1,,,,,,
66bcf6ae07e40789d4193872,2025-08-21_16h40.37.305,GLINT,2024.2.4,Win32,59.88023952,,,,,,,,,,,,,,,,,,,,cat,anim_natural,8,corn,lawnmower,apple,car,pineapple,binoculars,bear,cat,dog,8,1,2.38,,cat,anim_natural,1,natural,2,12,48,2,1,,,,,,
66bcf6ae07e40789d4193872,2025-08-21_16h40.37.305,GLINT,2024.2.4,Win32,59.88023952,,,,,,,,,,,,,,,,,,,,apple,inanim_natural,2,corn,apple,lawnmower,bread,snail,airplane,bear,car,cat,2,1,1.5485,,apple,inanim_natural,1,natural,2,13,49,9,1,,,,,,
66bcf6ae07e40789d4193872,2025-08-21_16h40.37.305,GLINT,2024.2.4,Win32,59.88023952,,,,,,,,,,,,,,,,,,,,house,inanim_artificial,7,bear,cow,bread,mushroom,binoculars,snail,house,airplane,corn,7,1,3.1145,,house,inanim_artificial,1,natural,2,14,50,15,1,,,,,,
66bcf6ae07e40789d4193872,2025-08-21_16h40.37.305,GLINT,2024.2.4,Win32,59.88023952,,,,,,,,,,,,,,,,,,,,car,inanim_artificial,7,bread,lawnmower,bear,corn,avocado,cat,car,house,dog,7,1,2.2406,,car,inanim_artificial,1,natural,2,15,51,14,1,,,,,,
66bcf6ae07e40789d4193872,2025-08-21_16h40.37.305,GLINT,2024.2.4,Win32,59.88023952,,,,,,,,,,,,,,,,,,,,butterfly,anim_natural,5,train,mushroom,snail,cow,butterfly,pineapple,airplane,house,avocado,5,1,1.827,,butterfly,anim_natural,1,natural,2,16,52,1,1,,,,,,
66bcf6ae07e40789d4193872,2025-08-21_16h40.37.305,GLINT,2024.2.4,Win32,59.88023952,,,,,,,,,,,,,,,,,,,,dog,anim_natural,5,lawnmower,cat,bear,avocado,dog,bread,car,pineapple,train,5,1,1.452,,dog,anim_natural,1,natural,2,17,53,4,1,,,,,,
66bcf6ae07e40789d4193872,2025-08-21_16h40.37.305,GLINT,2024.2.4,Win32,59.88023952,,,,,,,,,,,,,,,,,,,,mushroom,inanim_natural,9,avocado,snail,house,car,cat,corn,dog,lawnmower,mushroom,9,1,2.8335,,mushroom,inanim_natural,1,natural,3,0,54,7,1,,,,,,
66bcf6ae07e40789d4193872,2025-08-21_16h40.37.305,GLINT,2024.2.4,Win32,59.88023952,,,,,,,,,,,,,,,,,,,,car,inanim_artificial,1,car,snail,apple,airplane,dog,mushroom,corn,cow,train,1,1,3.3948,,car,inanim_artificial,1,natural,3,1,55,14,1,,,,,,
66bcf6ae07e40789d4193872,2025-08-21_16h40.37.305,GLINT,2024.2.4,Win32,59.88023952,,,,,,,,,,,,,,,,,,,,avocado,inanim_natural,4,cat,train,cow,avocado,lawnmower,mushroom,corn,airplane,bear,4,1,1.8131,,avocado,inanim_natural,1,natural,3,2,56,11,1,,,,,,
66bcf6ae07e40789d4193872,2025-08-21_16h40.37.305,GLINT,2024.2.4,Win32,59.88023952,,,,,,,,,,,,,,,,,,,,pineapple,inanim_natural,2,avocado,pineapple,corn,butterfly,lawnmower,bear,train,cat,house,2,1,2.3459,,pineapple,inanim_natural,1,natural,3,3,57,8,1,,,,,,
66bcf6ae07e40789d4193872,2025-08-21_16h40.37.305,GLINT,2024.2.4,Win32,59.88023952,,,,,,,,,,,,,,,,,,,,apple,inanim_natural,8,binoculars,lawnmower,cat,snail,bread,butterfly,corn,apple,train,8,1,2.7416,,apple,inanim_natural,1,natural,3,4,58,9,1,,,,,,
66bcf6ae07e40789d4193872,2025-08-21_16h40.37.305,GLINT,2024.2.4,Win32,59.88023952,,,,,,,,,,,,,,,,,,,,snail,anim_natural,3,lawnmower,butterfly,snail,apple,cat,binoculars,mushroom,house,corn,3,1,2.1443,,snail,anim_natural,1,natural,3,5,59,5,1,,,,,,
66bcf6ae07e40789d4193872,2025-08-21_16h40.37.305,GLINT,2024.2.4,Win32,59.88023952,,,,,,,,,,,,,,,,,,,,airplane,inanim_artificial,4,corn,pineapple,train,airplane,cat,butterfly,snail,car,avocado,,0,,,no response,no response,0,natural,3,6,60,12,1,,,,,,
66bcf6ae07e40789d4193872,2025-08-21_16h40.37.305,GLINT,2024.2.4,Win32,59.88023952,,,,,,,,,,,,,,,,,,,,train,inanim_artificial,4,avocado,binoculars,airplane,train,bread,cat,dog,snail,pineapple,4,1,2.8749,,train,inanim_artificial,1,natural,3,7,61,17,1,,,,,,
66bcf6ae07e40789d4193872,2025-08-21_16h40.37.305,GLINT,2024.2.4,Win32,59.88023952,,,,,,,,,,,,,,,,,,,,dog,anim_natural,7,train,avocado,bear,cat,lawnmower,house,dog,bread,corn,7,1,2.914,,dog,anim_natural,1,natural,3,8,62,4,1,,,,,,
66bcf6ae07e40789d4193872,2025-08-21_16h40.37.305,GLINT,2024.2.4,Win32,59.88023952,,,,,,,,,,,,,,,,,,,,butterfly,anim_natural,9,apple,avocado,corn,airplane,cat,house,dog,binoculars,butterfly,9,1,2.3978,,butterfly,anim_natural,1,natural,3,9,63,1,1,,,,,,
66bcf6ae07e40789d4193872,2025-08-21_16h40.37.305,GLINT,2024.2.4,Win32,59.88023952,,,,,,,,,,,,,,,,,,,,bear,anim_natural,9,binoculars,cow,train,mushroom,avocado,apple,snail,house,bear,9,1,2.412,,bear,anim_natural,1,natural,3,10,64,0,1,,,,,,
66bcf6ae07e40789d4193872,2025-08-21_16h40.37.305,GLINT,2024.2.4,Win32,59.88023952,,,,,,,,,,,,,,,,,,,,house,inanim_artificial,8,bear,pineapple,apple,cow,airplane,corn,dog,house,train,8,1,3.2618,,house,inanim_artificial,1,natural,3,11,65,15,1,,,,,,
66bcf6ae07e40789d4193872,2025-08-21_16h40.37.305,GLINT,2024.2.4,Win32,59.88023952,,,,,,,,,,,,,,,,,,,,corn,inanim_natural,3,dog,cow,corn,snail,airplane,train,car,avocado,pineapple,3,1,2.2956,,corn,inanim_natural,1,natural,3,12,66,10,1,,,,,,
66bcf6ae07e40789d4193872,2025-08-21_16h40.37.305,GLINT,2024.2.4,Win32,59.88023952,,,,,,,,,,,,,,,,,,,,bread,inanim_natural,4,cow,cat,airplane,bread,binoculars,snail,car,pineapple,corn,4,1,4.0774,,bread,inanim_natural,1,natural,3,13,67,6,1,,,,,,
66bcf6ae07e40789d4193872,2025-08-21_16h40.37.305,GLINT,2024.2.4,Win32,59.88023952,,,,,,,,,,,,,,,,,,,,lawnmower,inanim_artificial,9,butterfly,apple,train,snail,cow,pineapple,binoculars,bread,lawnmower,9,1,2.3792,,lawnmower,inanim_artificial,1,natural,3,14,68,16,1,,,,,,
66bcf6ae07e40789d4193872,2025-08-21_16h40.37.305,GLINT,2024.2.4,Win32,59.88023952,,,,,,,,,,,,,,,,,,,,binoculars,inanim_artificial,7,cow,snail,mushroom,house,pineapple,cat,binoculars,avocado,airplane,7,1,2.8125,,binoculars,inanim_artificial,1,natural,3,15,69,13,1,,,,,,
66bcf6ae07e40789d4193872,2025-08-21_16h40.37.305,GLINT,2024.2.4,Win32,59.88023952,,,,,,,,,,,,,,,,,,,,cow,anim_natural,1,cow,binoculars,snail,house,airplane,cat,corn,bread,avocado,1,1,1.7023,,cow,anim_natural,1,natural,3,16,70,3,1,,,,,,
66bcf6ae07e40789d4193872,2025-08-21_16h40.37.305,GLINT,2024.2.4,Win32,59.88023952,,,,,,,,,,,,,,,,,,,,cat,anim_natural,1,cat,corn,mushroom,house,binoculars,lawnmower,snail,butterfly,apple,1,1,1.5968,,cat,anim_natural,1,natural,3,17,71,2,1,,,,,,
66bcf6ae07e40789d4193872,2025-08-21_16h40.37.305,GLINT,2024.2.4,Win32,59.88023952,,,,,,,,,,,,,,,,,,,,,,,,,,,,,,,,,,,,,,,,,,,,,0,2,2,0,1,natural
