participant,date,expName,psychopyVersion,OS,frameRate,CorrectResponse,prac_prompt_1,prac_prompt_2,prac_prompt_3,prac_prompt_4,prac_prompt_5,prac_prompt_6,prac_prompt_7,prac_prompt_8,prac_prompt_9,prac_key_resp.keys,prac_key_resp.corr,prac_key_resp.rt,prac_key_resp.duration,prac_loop.thisRepN,prac_loop.thisTrialN,prac_loop.thisN,prac_loop.thisIndex,prac_loop.ran,object_class,object_category,corr_ans,prompt_1,prompt_2,prompt_3,prompt_4,prompt_5,prompt_6,prompt_7,prompt_8,prompt_9,key_resp.keys,key_resp.corr,key_resp.rt,key_resp.duration,response_label,response_animacy,corr_animacy,img_condition,test_loop.thisRepN,test_loop.thisTrialN,test_loop.thisN,test_loop.thisIndex,test_loop.ran,randomize_blocks.thisRepN,randomize_blocks.thisTrialN,randomize_blocks.thisN,randomize_blocks.thisIndex,randomize_blocks.ran,block_condition
673b1c300a415ab6d503a61d,2025-08-21_17h23.26.381,GLINT,2024.2.4,Win32,59.88023952,,,,,,,,,,,,,,,,,,,,,,,,,,,,,,,,,,,,,,,,,,,,,,,,,,
673b1c300a415ab6d503a61d,2025-08-21_17h23.26.381,GLINT,2024.2.4,Win32,59.88023952,,,,,,,,,,,,,,,,,,,,,,,,,,,,,,,,,,,,,,,,,,,,,,,,,,
673b1c300a415ab6d503a61d,2025-08-21_17h23.26.381,GLINT,2024.2.4,Win32,59.88023952,,,,,,,,,,,,,,,,,,,,,,,,,,,,,,,,,,,,,,,,,,,,,,,,,,
673b1c300a415ab6d503a61d,2025-08-21_17h23.26.381,GLINT,2024.2.4,Win32,59.88023952,7,hand,duck,truck,flower,bicycle,tree,dog,chair,leaf,7,1,2.704,,0,0,0,2,1,dog,anim_natural,,,,,,,,,,,,,,,,,,,,,,,,,,,,,
673b1c300a415ab6d503a61d,2025-08-21_17h23.26.381,GLINT,2024.2.4,Win32,59.88023952,4,leaf,tree,dog,duck,chair,truck,hand,bicycle,flower,4,1,1.5833,,0,1,1,1,1,duck,anim_natural,,,,,,,,,,,,,,,,,,,,,,,,,,,,,
673b1c300a415ab6d503a61d,2025-08-21_17h23.26.381,GLINT,2024.2.4,Win32,59.88023952,9,flower,tree,dog,duck,truck,chair,leaf,bicycle,hand,8,0,6.8118,,0,2,2,0,1,hand,anim_natural,,,,,,,,,,,,,,,,,,,,,,,,,,,,,
673b1c300a415ab6d503a61d,2025-08-21_17h23.26.381,GLINT,2024.2.4,Win32,59.88023952,3,bicycle,duck,flower,truck,tree,chair,dog,hand,leaf,9,0,2.7338,,0,3,3,3,1,flower,inanim_natural,,,,,,,,,,,,,,,,,,,,,,,,,,,,,
673b1c300a415ab6d503a61d,2025-08-21_17h23.26.381,GLINT,2024.2.4,Win32,59.88023952,7,duck,bicycle,chair,dog,hand,truck,tree,leaf,flower,7,1,1.5054,,0,4,4,4,1,tree,inanim_natural,,,,,,,,,,,,,,,,,,,,,,,,,,,,,
673b1c300a415ab6d503a61d,2025-08-21_17h23.26.381,GLINT,2024.2.4,Win32,59.88023952,,,,,,,,,,,,,,,,,,,,car,inanim_artificial,8,bear,snail,corn,mushroom,binoculars,avocado,cat,car,lawnmower,8,1,2.2158,,car,inanim_artificial,1,scrambled,0,0,0,14,1,,,,,,
673b1c300a415ab6d503a61d,2025-08-21_17h23.26.381,GLINT,2024.2.4,Win32,59.88023952,,,,,,,,,,,,,,,,,,,,lawnmower,inanim_artificial,9,cow,airplane,house,avocado,butterfly,apple,pineapple,snail,lawnmower,9,1,2.5436,,lawnmower,inanim_artificial,1,scrambled,0,1,1,16,1,,,,,,
673b1c300a415ab6d503a61d,2025-08-21_17h23.26.381,GLINT,2024.2.4,Win32,59.88023952,,,,,,,,,,,,,,,,,,,,house,inanim_artificial,9,corn,bread,cow,train,dog,pineapple,lawnmower,bear,house,9,1,2.1868,,house,inanim_artificial,1,scrambled,0,2,2,15,1,,,,,,
673b1c300a415ab6d503a61d,2025-08-21_17h23.26.381,GLINT,2024.2.4,Win32,59.88023952,,,,,,,,,,,,,,,,,,,,avocado,inanim_natural,7,airplane,bear,bread,cat,butterfly,binoculars,avocado,apple,car,7,1,1.6722,,avocado,inanim_natural,1,scrambled,0,3,3,11,1,,,,,,
673b1c300a415ab6d503a61d,2025-08-21_17h23.26.381,GLINT,2024.2.4,Win32,59.88023952,,,,,,,,,,,,,,,,,,,,airplane,inanim_artificial,3,butterfly,train,airplane,cat,lawnmower,apple,corn,cow,pineapple,3,1,3.6994,,airplane,inanim_artificial,1,scrambled,0,4,4,12,1,,,,,,
673b1c300a415ab6d503a61d,2025-08-21_17h23.26.381,GLINT,2024.2.4,Win32,59.88023952,,,,,,,,,,,,,,,,,,,,dog,anim_natural,7,car,train,pineapple,butterfly,bear,mushroom,dog,binoculars,apple,7,1,2.1122,,dog,anim_natural,1,scrambled,0,5,5,4,1,,,,,,
673b1c300a415ab6d503a61d,2025-08-21_17h23.26.381,GLINT,2024.2.4,Win32,59.88023952,,,,,,,,,,,,,,,,,,,,train,inanim_artificial,3,cat,airplane,train,snail,binoculars,mushroom,dog,corn,bread,3,1,3.3196,,train,inanim_artificial,1,scrambled,0,6,6,17,1,,,,,,
673b1c300a415ab6d503a61d,2025-08-21_17h23.26.381,GLINT,2024.2.4,Win32,59.88023952,,,,,,,,,,,,,,,,,,,,apple,inanim_natural,8,snail,avocado,house,binoculars,cow,bear,mushroom,apple,airplane,8,1,1.9642,,apple,inanim_natural,1,scrambled,0,7,7,9,1,,,,,,
673b1c300a415ab6d503a61d,2025-08-21_17h23.26.381,GLINT,2024.2.4,Win32,59.88023952,,,,,,,,,,,,,,,,,,,,cat,anim_natural,4,butterfly,corn,airplane,cat,house,dog,train,apple,pineapple,4,1,1.4074,,cat,anim_natural,1,scrambled,0,8,8,2,1,,,,,,
673b1c300a415ab6d503a61d,2025-08-21_17h23.26.381,GLINT,2024.2.4,Win32,59.88023952,,,,,,,,,,,,,,,,,,,,cow,anim_natural,2,house,cow,airplane,corn,bread,dog,car,mushroom,butterfly,2,1,2.7076,,cow,anim_natural,1,scrambled,0,9,9,3,1,,,,,,
673b1c300a415ab6d503a61d,2025-08-21_17h23.26.381,GLINT,2024.2.4,Win32,59.88023952,,,,,,,,,,,,,,,,,,,,pineapple,inanim_natural,7,butterfly,mushroom,binoculars,cat,house,apple,pineapple,train,snail,7,1,2.4982,,pineapple,inanim_natural,1,scrambled,0,10,10,8,1,,,,,,
673b1c300a415ab6d503a61d,2025-08-21_17h23.26.381,GLINT,2024.2.4,Win32,59.88023952,,,,,,,,,,,,,,,,,,,,bear,anim_natural,6,bread,airplane,avocado,dog,car,bear,cat,mushroom,binoculars,6,1,2.6772,,bear,anim_natural,1,scrambled,0,11,11,0,1,,,,,,
673b1c300a415ab6d503a61d,2025-08-21_17h23.26.381,GLINT,2024.2.4,Win32,59.88023952,,,,,,,,,,,,,,,,,,,,butterfly,anim_natural,6,pineapple,dog,lawnmower,bread,cat,butterfly,house,train,corn,6,1,1.3875,,butterfly,anim_natural,1,scrambled,0,12,12,1,1,,,,,,
673b1c300a415ab6d503a61d,2025-08-21_17h23.26.381,GLINT,2024.2.4,Win32,59.88023952,,,,,,,,,,,,,,,,,,,,binoculars,inanim_artificial,7,snail,cow,apple,airplane,corn,bread,binoculars,cat,house,7,1,1.5936,,binoculars,inanim_artificial,1,scrambled,0,13,13,13,1,,,,,,
673b1c300a415ab6d503a61d,2025-08-21_17h23.26.381,GLINT,2024.2.4,Win32,59.88023952,,,,,,,,,,,,,,,,,,,,mushroom,inanim_natural,4,pineapple,lawnmower,cow,mushroom,bread,bear,binoculars,butterfly,airplane,4,1,3.899,,mushroom,inanim_natural,1,scrambled,0,14,14,7,1,,,,,,
673b1c300a415ab6d503a61d,2025-08-21_17h23.26.381,GLINT,2024.2.4,Win32,59.88023952,,,,,,,,,,,,,,,,,,,,corn,inanim_natural,7,binoculars,apple,pineapple,snail,cow,lawnmower,corn,car,bear,7,1,1.4052,,corn,inanim_natural,1,scrambled,0,15,15,10,1,,,,,,
673b1c300a415ab6d503a61d,2025-08-21_17h23.26.381,GLINT,2024.2.4,Win32,59.88023952,,,,,,,,,,,,,,,,,,,,bread,inanim_natural,2,dog,bread,cat,airplane,avocado,mushroom,house,car,snail,9,0,3.6288,,snail,anim_natural,0,scrambled,0,16,16,6,1,,,,,,
673b1c300a415ab6d503a61d,2025-08-21_17h23.26.381,GLINT,2024.2.4,Win32,59.88023952,,,,,,,,,,,,,,,,,,,,snail,anim_natural,8,pineapple,bread,cat,mushroom,dog,binoculars,airplane,snail,car,8,1,2.8396,,snail,anim_natural,1,scrambled,0,17,17,5,1,,,,,,
673b1c300a415ab6d503a61d,2025-08-21_17h23.26.381,GLINT,2024.2.4,Win32,59.88023952,,,,,,,,,,,,,,,,,,,,train,inanim_artificial,8,mushroom,bread,cow,binoculars,apple,bear,house,train,snail,8,1,1.5358,,train,inanim_artificial,1,scrambled,1,0,18,17,1,,,,,,
673b1c300a415ab6d503a61d,2025-08-21_17h23.26.381,GLINT,2024.2.4,Win32,59.88023952,,,,,,,,,,,,,,,,,,,,airplane,inanim_artificial,3,bear,lawnmower,airplane,cow,binoculars,corn,apple,butterfly,avocado,3,1,1.7712,,airplane,inanim_artificial,1,scrambled,1,1,19,12,1,,,,,,
673b1c300a415ab6d503a61d,2025-08-21_17h23.26.381,GLINT,2024.2.4,Win32,59.88023952,,,,,,,,,,,,,,,,,,,,mushroom,inanim_natural,5,cat,train,corn,car,mushroom,avocado,snail,cow,binoculars,5,1,1.4577,,mushroom,inanim_natural,1,scrambled,1,2,20,7,1,,,,,,
673b1c300a415ab6d503a61d,2025-08-21_17h23.26.381,GLINT,2024.2.4,Win32,59.88023952,,,,,,,,,,,,,,,,,,,,cat,anim_natural,5,snail,avocado,apple,dog,cat,airplane,corn,binoculars,train,5,1,0.9641,,cat,anim_natural,1,scrambled,1,3,21,2,1,,,,,,
673b1c300a415ab6d503a61d,2025-08-21_17h23.26.381,GLINT,2024.2.4,Win32,59.88023952,,,,,,,,,,,,,,,,,,,,avocado,inanim_natural,1,avocado,butterfly,mushroom,dog,train,binoculars,house,pineapple,cat,1,1,2.2692,,avocado,inanim_natural,1,scrambled,1,4,22,11,1,,,,,,
673b1c300a415ab6d503a61d,2025-08-21_17h23.26.381,GLINT,2024.2.4,Win32,59.88023952,,,,,,,,,,,,,,,,,,,,bread,inanim_natural,4,house,binoculars,apple,bread,butterfly,snail,lawnmower,corn,cow,4,1,1.5151,,bread,inanim_natural,1,scrambled,1,5,23,6,1,,,,,,
673b1c300a415ab6d503a61d,2025-08-21_17h23.26.381,GLINT,2024.2.4,Win32,59.88023952,,,,,,,,,,,,,,,,,,,,corn,inanim_natural,3,bread,mushroom,corn,cow,bear,lawnmower,dog,house,car,3,1,2.0077,,corn,inanim_natural,1,scrambled,1,6,24,10,1,,,,,,
673b1c300a415ab6d503a61d,2025-08-21_17h23.26.381,GLINT,2024.2.4,Win32,59.88023952,,,,,,,,,,,,,,,,,,,,binoculars,inanim_artificial,2,bear,binoculars,pineapple,airplane,mushroom,lawnmower,butterfly,snail,bread,2,1,1.4345,,binoculars,inanim_artificial,1,scrambled,1,7,25,13,1,,,,,,
673b1c300a415ab6d503a61d,2025-08-21_17h23.26.381,GLINT,2024.2.4,Win32,59.88023952,,,,,,,,,,,,,,,,,,,,car,inanim_artificial,4,dog,train,cat,car,bread,corn,apple,snail,lawnmower,4,1,1.2542,,car,inanim_artificial,1,scrambled,1,8,26,14,1,,,,,,
673b1c300a415ab6d503a61d,2025-08-21_17h23.26.381,GLINT,2024.2.4,Win32,59.88023952,,,,,,,,,,,,,,,,,,,,dog,anim_natural,1,dog,avocado,airplane,snail,mushroom,corn,butterfly,lawnmower,house,1,1,1.2479,,dog,anim_natural,1,scrambled,1,9,27,4,1,,,,,,
673b1c300a415ab6d503a61d,2025-08-21_17h23.26.381,GLINT,2024.2.4,Win32,59.88023952,,,,,,,,,,,,,,,,,,,,apple,inanim_natural,6,train,airplane,bread,snail,cat,apple,corn,car,dog,6,1,1.1978,,apple,inanim_natural,1,scrambled,1,10,28,9,1,,,,,,
673b1c300a415ab6d503a61d,2025-08-21_17h23.26.381,GLINT,2024.2.4,Win32,59.88023952,,,,,,,,,,,,,,,,,,,,bear,anim_natural,3,binoculars,car,bear,pineapple,dog,cat,corn,house,apple,3,1,4.7561,,bear,anim_natural,1,scrambled,1,11,29,0,1,,,,,,
673b1c300a415ab6d503a61d,2025-08-21_17h23.26.381,GLINT,2024.2.4,Win32,59.88023952,,,,,,,,,,,,,,,,,,,,pineapple,inanim_natural,8,house,cow,mushroom,airplane,avocado,cat,train,pineapple,bear,8,1,1.1224,,pineapple,inanim_natural,1,scrambled,1,12,30,8,1,,,,,,
673b1c300a415ab6d503a61d,2025-08-21_17h23.26.381,GLINT,2024.2.4,Win32,59.88023952,,,,,,,,,,,,,,,,,,,,snail,anim_natural,7,airplane,corn,apple,lawnmower,mushroom,cat,snail,dog,train,,0,,,no response,no response,0,scrambled,1,13,31,5,1,,,,,,
673b1c300a415ab6d503a61d,2025-08-21_17h23.26.381,GLINT,2024.2.4,Win32,59.88023952,,,,,,,,,,,,,,,,,,,,butterfly,anim_natural,4,snail,car,cat,butterfly,apple,avocado,lawnmower,binoculars,mushroom,4,1,1.7947,,butterfly,anim_natural,1,scrambled,1,14,32,1,1,,,,,,
673b1c300a415ab6d503a61d,2025-08-21_17h23.26.381,GLINT,2024.2.4,Win32,59.88023952,,,,,,,,,,,,,,,,,,,,house,inanim_artificial,3,lawnmower,bread,house,snail,cow,binoculars,corn,dog,apple,3,1,2.3338,,house,inanim_artificial,1,scrambled,1,15,33,15,1,,,,,,
673b1c300a415ab6d503a61d,2025-08-21_17h23.26.381,GLINT,2024.2.4,Win32,59.88023952,,,,,,,,,,,,,,,,,,,,lawnmower,inanim_artificial,3,binoculars,snail,lawnmower,butterfly,dog,avocado,bread,mushroom,train,3,1,1.7192,,lawnmower,inanim_artificial,1,scrambled,1,16,34,16,1,,,,,,
673b1c300a415ab6d503a61d,2025-08-21_17h23.26.381,GLINT,2024.2.4,Win32,59.88023952,,,,,,,,,,,,,,,,,,,,cow,anim_natural,8,binoculars,dog,mushroom,apple,train,pineapple,airplane,cow,butterfly,8,1,1.5546,,cow,anim_natural,1,scrambled,1,17,35,3,1,,,,,,
673b1c300a415ab6d503a61d,2025-08-21_17h23.26.381,GLINT,2024.2.4,Win32,59.88023952,,,,,,,,,,,,,,,,,,,,house,inanim_artificial,4,corn,lawnmower,dog,house,avocado,snail,airplane,cat,mushroom,4,1,1.6487,,house,inanim_artificial,1,scrambled,2,0,36,15,1,,,,,,
673b1c300a415ab6d503a61d,2025-08-21_17h23.26.381,GLINT,2024.2.4,Win32,59.88023952,,,,,,,,,,,,,,,,,,,,bread,inanim_natural,1,bread,avocado,cow,bear,binoculars,apple,airplane,snail,train,1,1,2.2151,,bread,inanim_natural,1,scrambled,2,1,37,6,1,,,,,,
673b1c300a415ab6d503a61d,2025-08-21_17h23.26.381,GLINT,2024.2.4,Win32,59.88023952,,,,,,,,,,,,,,,,,,,,cow,anim_natural,5,butterfly,cat,lawnmower,car,cow,train,avocado,mushroom,pineapple,5,1,0.7049,,cow,anim_natural,1,scrambled,2,2,38,3,1,,,,,,
673b1c300a415ab6d503a61d,2025-08-21_17h23.26.381,GLINT,2024.2.4,Win32,59.88023952,,,,,,,,,,,,,,,,,,,,airplane,inanim_artificial,2,cat,airplane,cow,butterfly,corn,binoculars,pineapple,train,bread,2,1,2.5419,,airplane,inanim_artificial,1,scrambled,2,3,39,12,1,,,,,,
673b1c300a415ab6d503a61d,2025-08-21_17h23.26.381,GLINT,2024.2.4,Win32,59.88023952,,,,,,,,,,,,,,,,,,,,car,inanim_artificial,1,car,train,cat,mushroom,bear,avocado,lawnmower,pineapple,snail,1,1,1.5305,,car,inanim_artificial,1,scrambled,2,4,40,14,1,,,,,,
673b1c300a415ab6d503a61d,2025-08-21_17h23.26.381,GLINT,2024.2.4,Win32,59.88023952,,,,,,,,,,,,,,,,,,,,dog,anim_natural,2,bear,dog,binoculars,snail,mushroom,pineapple,lawnmower,train,corn,2,1,1.5688,,dog,anim_natural,1,scrambled,2,5,41,4,1,,,,,,
673b1c300a415ab6d503a61d,2025-08-21_17h23.26.381,GLINT,2024.2.4,Win32,59.88023952,,,,,,,,,,,,,,,,,,,,mushroom,inanim_natural,3,lawnmower,airplane,mushroom,corn,apple,cow,binoculars,dog,cat,3,1,1.4021,,mushroom,inanim_natural,1,scrambled,2,6,42,7,1,,,,,,
673b1c300a415ab6d503a61d,2025-08-21_17h23.26.381,GLINT,2024.2.4,Win32,59.88023952,,,,,,,,,,,,,,,,,,,,train,inanim_artificial,1,train,airplane,cow,bear,butterfly,lawnmower,pineapple,apple,avocado,1,1,2.4195,,train,inanim_artificial,1,scrambled,2,7,43,17,1,,,,,,
673b1c300a415ab6d503a61d,2025-08-21_17h23.26.381,GLINT,2024.2.4,Win32,59.88023952,,,,,,,,,,,,,,,,,,,,avocado,inanim_natural,7,airplane,binoculars,mushroom,butterfly,cat,apple,avocado,bear,car,7,1,2.7153,,avocado,inanim_natural,1,scrambled,2,8,44,11,1,,,,,,
673b1c300a415ab6d503a61d,2025-08-21_17h23.26.381,GLINT,2024.2.4,Win32,59.88023952,,,,,,,,,,,,,,,,,,,,lawnmower,inanim_artificial,1,lawnmower,dog,cow,house,corn,cat,pineapple,avocado,car,1,1,1.5603,,lawnmower,inanim_artificial,1,scrambled,2,9,45,16,1,,,,,,
673b1c300a415ab6d503a61d,2025-08-21_17h23.26.381,GLINT,2024.2.4,Win32,59.88023952,,,,,,,,,,,,,,,,,,,,cat,anim_natural,2,bear,cat,avocado,car,lawnmower,airplane,pineapple,apple,snail,2,1,1.4528,,cat,anim_natural,1,scrambled,2,10,46,2,1,,,,,,
673b1c300a415ab6d503a61d,2025-08-21_17h23.26.381,GLINT,2024.2.4,Win32,59.88023952,,,,,,,,,,,,,,,,,,,,corn,inanim_natural,7,avocado,snail,binoculars,dog,pineapple,car,corn,bear,airplane,7,1,2.0446,,corn,inanim_natural,1,scrambled,2,11,47,10,1,,,,,,
673b1c300a415ab6d503a61d,2025-08-21_17h23.26.381,GLINT,2024.2.4,Win32,59.88023952,,,,,,,,,,,,,,,,,,,,butterfly,anim_natural,7,mushroom,binoculars,corn,pineapple,car,snail,butterfly,lawnmower,bear,7,1,3.1647,,butterfly,anim_natural,1,scrambled,2,12,48,1,1,,,,,,
673b1c300a415ab6d503a61d,2025-08-21_17h23.26.381,GLINT,2024.2.4,Win32,59.88023952,,,,,,,,,,,,,,,,,,,,snail,anim_natural,8,apple,mushroom,airplane,binoculars,cow,train,pineapple,snail,cat,2,0,2.8237,,mushroom,inanim_natural,0,scrambled,2,13,49,5,1,,,,,,
673b1c300a415ab6d503a61d,2025-08-21_17h23.26.381,GLINT,2024.2.4,Win32,59.88023952,,,,,,,,,,,,,,,,,,,,pineapple,inanim_natural,9,binoculars,bread,house,car,butterfly,dog,snail,corn,pineapple,9,1,2.1634,,pineapple,inanim_natural,1,scrambled,2,14,50,8,1,,,,,,
673b1c300a415ab6d503a61d,2025-08-21_17h23.26.381,GLINT,2024.2.4,Win32,59.88023952,,,,,,,,,,,,,,,,,,,,bear,anim_natural,6,mushroom,car,house,bread,cat,bear,cow,corn,lawnmower,7,0,1.969,,cow,anim_natural,1,scrambled,2,15,51,0,1,,,,,,
673b1c300a415ab6d503a61d,2025-08-21_17h23.26.381,GLINT,2024.2.4,Win32,59.88023952,,,,,,,,,,,,,,,,,,,,apple,inanim_natural,4,avocado,cow,car,apple,lawnmower,airplane,cat,snail,bread,4,1,1.1815,,apple,inanim_natural,1,scrambled,2,16,52,9,1,,,,,,
673b1c300a415ab6d503a61d,2025-08-21_17h23.26.381,GLINT,2024.2.4,Win32,59.88023952,,,,,,,,,,,,,,,,,,,,binoculars,inanim_artificial,5,pineapple,butterfly,airplane,cat,binoculars,train,avocado,dog,mushroom,5,1,1.0217,,binoculars,inanim_artificial,1,scrambled,2,17,53,13,1,,,,,,
673b1c300a415ab6d503a61d,2025-08-21_17h23.26.381,GLINT,2024.2.4,Win32,59.88023952,,,,,,,,,,,,,,,,,,,,pineapple,inanim_natural,1,pineapple,binoculars,cat,apple,butterfly,cow,corn,airplane,house,1,1,1.8515,,pineapple,inanim_natural,1,scrambled,3,0,54,8,1,,,,,,
673b1c300a415ab6d503a61d,2025-08-21_17h23.26.381,GLINT,2024.2.4,Win32,59.88023952,,,,,,,,,,,,,,,,,,,,apple,inanim_natural,7,bread,avocado,cat,bear,butterfly,binoculars,apple,train,lawnmower,7,1,2.7754,,apple,inanim_natural,1,scrambled,3,1,55,9,1,,,,,,
673b1c300a415ab6d503a61d,2025-08-21_17h23.26.381,GLINT,2024.2.4,Win32,59.88023952,,,,,,,,,,,,,,,,,,,,mushroom,inanim_natural,2,lawnmower,mushroom,train,dog,avocado,cow,bread,airplane,bear,5,0,2.3346,,avocado,inanim_natural,1,scrambled,3,2,56,7,1,,,,,,
673b1c300a415ab6d503a61d,2025-08-21_17h23.26.381,GLINT,2024.2.4,Win32,59.88023952,,,,,,,,,,,,,,,,,,,,lawnmower,inanim_artificial,9,apple,avocado,house,bread,airplane,cow,snail,dog,lawnmower,9,1,1.2475,,lawnmower,inanim_artificial,1,scrambled,3,3,57,16,1,,,,,,
673b1c300a415ab6d503a61d,2025-08-21_17h23.26.381,GLINT,2024.2.4,Win32,59.88023952,,,,,,,,,,,,,,,,,,,,binoculars,inanim_artificial,6,dog,bear,house,avocado,apple,binoculars,car,cat,corn,6,1,1.4481,,binoculars,inanim_artificial,1,scrambled,3,4,58,13,1,,,,,,
673b1c300a415ab6d503a61d,2025-08-21_17h23.26.381,GLINT,2024.2.4,Win32,59.88023952,,,,,,,,,,,,,,,,,,,,corn,inanim_natural,9,airplane,binoculars,bread,butterfly,avocado,cow,cat,train,corn,9,1,1.5824,,corn,inanim_natural,1,scrambled,3,5,59,10,1,,,,,,
673b1c300a415ab6d503a61d,2025-08-21_17h23.26.381,GLINT,2024.2.4,Win32,59.88023952,,,,,,,,,,,,,,,,,,,,cat,anim_natural,4,binoculars,mushroom,bread,cat,butterfly,dog,avocado,car,train,4,1,1.665,,cat,anim_natural,1,scrambled,3,6,60,2,1,,,,,,
673b1c300a415ab6d503a61d,2025-08-21_17h23.26.381,GLINT,2024.2.4,Win32,59.88023952,,,,,,,,,,,,,,,,,,,,butterfly,anim_natural,4,airplane,binoculars,lawnmower,butterfly,snail,corn,bread,pineapple,bear,4,1,2.1314,,butterfly,anim_natural,1,scrambled,3,7,61,1,1,,,,,,
673b1c300a415ab6d503a61d,2025-08-21_17h23.26.381,GLINT,2024.2.4,Win32,59.88023952,,,,,,,,,,,,,,,,,,,,cow,anim_natural,8,apple,avocado,airplane,train,cat,binoculars,pineapple,cow,dog,8,1,1.5399,,cow,anim_natural,1,scrambled,3,8,62,3,1,,,,,,
673b1c300a415ab6d503a61d,2025-08-21_17h23.26.381,GLINT,2024.2.4,Win32,59.88023952,,,,,,,,,,,,,,,,,,,,snail,anim_natural,7,bear,lawnmower,bread,pineapple,binoculars,house,snail,avocado,dog,7,1,2.4609,,snail,anim_natural,1,scrambled,3,9,63,5,1,,,,,,
673b1c300a415ab6d503a61d,2025-08-21_17h23.26.381,GLINT,2024.2.4,Win32,59.88023952,,,,,,,,,,,,,,,,,,,,bear,anim_natural,1,bear,house,lawnmower,avocado,pineapple,snail,butterfly,corn,train,1,1,2.1326,,bear,anim_natural,1,scrambled,3,10,64,0,1,,,,,,
673b1c300a415ab6d503a61d,2025-08-21_17h23.26.381,GLINT,2024.2.4,Win32,59.88023952,,,,,,,,,,,,,,,,,,,,house,inanim_artificial,9,apple,car,train,butterfly,bread,cat,mushroom,dog,house,9,1,2.0214,,house,inanim_artificial,1,scrambled,3,11,65,15,1,,,,,,
673b1c300a415ab6d503a61d,2025-08-21_17h23.26.381,GLINT,2024.2.4,Win32,59.88023952,,,,,,,,,,,,,,,,,,,,bread,inanim_natural,6,lawnmower,butterfly,dog,corn,binoculars,bread,apple,car,bear,6,1,3.983,,bread,inanim_natural,1,scrambled,3,12,66,6,1,,,,,,
673b1c300a415ab6d503a61d,2025-08-21_17h23.26.381,GLINT,2024.2.4,Win32,59.88023952,,,,,,,,,,,,,,,,,,,,train,inanim_artificial,6,pineapple,bread,snail,car,lawnmower,train,butterfly,cat,corn,4,0,1.8734,,car,inanim_artificial,1,scrambled,3,13,67,17,1,,,,,,
673b1c300a415ab6d503a61d,2025-08-21_17h23.26.381,GLINT,2024.2.4,Win32,59.88023952,,,,,,,,,,,,,,,,,,,,avocado,inanim_natural,7,airplane,pineapple,snail,cat,butterfly,house,avocado,apple,train,7,1,1.2978,,avocado,inanim_natural,1,scrambled,3,14,68,11,1,,,,,,
673b1c300a415ab6d503a61d,2025-08-21_17h23.26.381,GLINT,2024.2.4,Win32,59.88023952,,,,,,,,,,,,,,,,,,,,car,inanim_artificial,6,snail,apple,cat,bread,binoculars,car,house,pineapple,cow,6,1,2.1653,,car,inanim_artificial,1,scrambled,3,15,69,14,1,,,,,,
673b1c300a415ab6d503a61d,2025-08-21_17h23.26.381,GLINT,2024.2.4,Win32,59.88023952,,,,,,,,,,,,,,,,,,,,dog,anim_natural,2,binoculars,dog,house,avocado,pineapple,cow,cat,apple,airplane,2,1,1.7631,,dog,anim_natural,1,scrambled,3,16,70,4,1,,,,,,
673b1c300a415ab6d503a61d,2025-08-21_17h23.26.381,GLINT,2024.2.4,Win32,59.88023952,,,,,,,,,,,,,,,,,,,,airplane,inanim_artificial,9,cat,mushroom,apple,dog,train,corn,snail,lawnmower,airplane,9,1,1.5799,,airplane,inanim_artificial,1,scrambled,3,17,71,12,1,,,,,,
673b1c300a415ab6d503a61d,2025-08-21_17h23.26.381,GLINT,2024.2.4,Win32,59.88023952,,,,,,,,,,,,,,,,,,,,,,,,,,,,,,,,,,,,,,,,,,,,,0,0,0,2,1,scrambled
673b1c300a415ab6d503a61d,2025-08-21_17h23.26.381,GLINT,2024.2.4,Win32,59.88023952,,,,,,,,,,,,,,,,,,,,airplane,inanim_artificial,7,pineapple,cow,cat,mushroom,train,lawnmower,airplane,avocado,bear,7,1,2.4038,,airplane,inanim_artificial,1,line_drawing,0,0,0,12,1,,,,,,
673b1c300a415ab6d503a61d,2025-08-21_17h23.26.381,GLINT,2024.2.4,Win32,59.88023952,,,,,,,,,,,,,,,,,,,,binoculars,inanim_artificial,7,avocado,snail,apple,house,butterfly,car,binoculars,cat,pineapple,7,1,1.4153,,binoculars,inanim_artificial,1,line_drawing,0,1,1,13,1,,,,,,
673b1c300a415ab6d503a61d,2025-08-21_17h23.26.381,GLINT,2024.2.4,Win32,59.88023952,,,,,,,,,,,,,,,,,,,,lawnmower,inanim_artificial,3,cat,snail,lawnmower,avocado,apple,butterfly,bread,binoculars,car,3,1,1.3883,,lawnmower,inanim_artificial,1,line_drawing,0,2,2,16,1,,,,,,
673b1c300a415ab6d503a61d,2025-08-21_17h23.26.381,GLINT,2024.2.4,Win32,59.88023952,,,,,,,,,,,,,,,,,,,,dog,anim_natural,2,corn,dog,lawnmower,binoculars,mushroom,avocado,cow,car,snail,2,1,2.41,,dog,anim_natural,1,line_drawing,0,3,3,4,1,,,,,,
673b1c300a415ab6d503a61d,2025-08-21_17h23.26.381,GLINT,2024.2.4,Win32,59.88023952,,,,,,,,,,,,,,,,,,,,car,inanim_artificial,1,car,corn,lawnmower,bread,binoculars,avocado,cat,dog,bear,1,1,2.0735,,car,inanim_artificial,1,line_drawing,0,4,4,14,1,,,,,,
673b1c300a415ab6d503a61d,2025-08-21_17h23.26.381,GLINT,2024.2.4,Win32,59.88023952,,,,,,,,,,,,,,,,,,,,pineapple,inanim_natural,1,pineapple,apple,dog,airplane,train,lawnmower,snail,bear,bread,,0,,,no response,no response,0,line_drawing,0,5,5,8,1,,,,,,
673b1c300a415ab6d503a61d,2025-08-21_17h23.26.381,GLINT,2024.2.4,Win32,59.88023952,,,,,,,,,,,,,,,,,,,,train,inanim_artificial,2,car,train,apple,pineapple,bear,cat,house,mushroom,snail,7,0,2.0694,,house,inanim_artificial,1,line_drawing,0,6,6,17,1,,,,,,
673b1c300a415ab6d503a61d,2025-08-21_17h23.26.381,GLINT,2024.2.4,Win32,59.88023952,,,,,,,,,,,,,,,,,,,,corn,inanim_natural,6,binoculars,bread,train,cat,lawnmower,corn,butterfly,mushroom,cow,6,1,1.3926,,corn,inanim_natural,1,line_drawing,0,7,7,10,1,,,,,,
673b1c300a415ab6d503a61d,2025-08-21_17h23.26.381,GLINT,2024.2.4,Win32,59.88023952,,,,,,,,,,,,,,,,,,,,bread,inanim_natural,4,cow,house,cat,bread,mushroom,lawnmower,avocado,bear,airplane,2,0,3.1061,,house,inanim_artificial,0,line_drawing,0,8,8,6,1,,,,,,
673b1c300a415ab6d503a61d,2025-08-21_17h23.26.381,GLINT,2024.2.4,Win32,59.88023952,,,,,,,,,,,,,,,,,,,,snail,anim_natural,7,avocado,train,butterfly,bread,lawnmower,corn,snail,house,cat,9,0,3.0871,,cat,anim_natural,1,line_drawing,0,9,9,5,1,,,,,,
673b1c300a415ab6d503a61d,2025-08-21_17h23.26.381,GLINT,2024.2.4,Win32,59.88023952,,,,,,,,,,,,,,,,,,,,butterfly,anim_natural,2,house,butterfly,mushroom,cow,bread,train,corn,bear,lawnmower,3,0,2.5872,,mushroom,inanim_natural,0,line_drawing,0,10,10,1,1,,,,,,
673b1c300a415ab6d503a61d,2025-08-21_17h23.26.381,GLINT,2024.2.4,Win32,59.88023952,,,,,,,,,,,,,,,,,,,,cat,anim_natural,9,avocado,train,butterfly,dog,bread,corn,lawnmower,car,cat,9,1,2.5708,,cat,anim_natural,1,line_drawing,0,11,11,2,1,,,,,,
673b1c300a415ab6d503a61d,2025-08-21_17h23.26.381,GLINT,2024.2.4,Win32,59.88023952,,,,,,,,,,,,,,,,,,,,bear,anim_natural,2,corn,bear,snail,train,apple,butterfly,avocado,car,house,2,1,3.6731,,bear,anim_natural,1,line_drawing,0,12,12,0,1,,,,,,
673b1c300a415ab6d503a61d,2025-08-21_17h23.26.381,GLINT,2024.2.4,Win32,59.88023952,,,,,,,,,,,,,,,,,,,,avocado,inanim_natural,5,dog,snail,train,corn,avocado,lawnmower,airplane,butterfly,pineapple,5,1,1.9149,,avocado,inanim_natural,1,line_drawing,0,13,13,11,1,,,,,,
673b1c300a415ab6d503a61d,2025-08-21_17h23.26.381,GLINT,2024.2.4,Win32,59.88023952,,,,,,,,,,,,,,,,,,,,house,inanim_artificial,6,train,cat,apple,binoculars,bread,house,snail,cow,mushroom,6,1,1.3151,,house,inanim_artificial,1,line_drawing,0,14,14,15,1,,,,,,
673b1c300a415ab6d503a61d,2025-08-21_17h23.26.381,GLINT,2024.2.4,Win32,59.88023952,,,,,,,,,,,,,,,,,,,,mushroom,inanim_natural,4,dog,house,car,mushroom,apple,airplane,bear,snail,corn,5,0,1.2577,,apple,inanim_natural,1,line_drawing,0,15,15,7,1,,,,,,
673b1c300a415ab6d503a61d,2025-08-21_17h23.26.381,GLINT,2024.2.4,Win32,59.88023952,,,,,,,,,,,,,,,,,,,,cow,anim_natural,6,dog,bread,car,corn,butterfly,cow,apple,binoculars,airplane,6,1,1.3492,,cow,anim_natural,1,line_drawing,0,16,16,3,1,,,,,,
673b1c300a415ab6d503a61d,2025-08-21_17h23.26.381,GLINT,2024.2.4,Win32,59.88023952,,,,,,,,,,,,,,,,,,,,apple,inanim_natural,6,cat,pineapple,car,airplane,cow,apple,mushroom,house,snail,6,1,2.3497,,apple,inanim_natural,1,line_drawing,0,17,17,9,1,,,,,,
673b1c300a415ab6d503a61d,2025-08-21_17h23.26.381,GLINT,2024.2.4,Win32,59.88023952,,,,,,,,,,,,,,,,,,,,cat,anim_natural,6,train,bear,pineapple,corn,mushroom,cat,binoculars,lawnmower,cow,6,1,1.29,,cat,anim_natural,1,line_drawing,1,0,18,2,1,,,,,,
673b1c300a415ab6d503a61d,2025-08-21_17h23.26.381,GLINT,2024.2.4,Win32,59.88023952,,,,,,,,,,,,,,,,,,,,butterfly,anim_natural,3,avocado,bear,butterfly,snail,house,mushroom,car,train,apple,3,1,1.6709,,butterfly,anim_natural,1,line_drawing,1,1,19,1,1,,,,,,
673b1c300a415ab6d503a61d,2025-08-21_17h23.26.381,GLINT,2024.2.4,Win32,59.88023952,,,,,,,,,,,,,,,,,,,,corn,inanim_natural,4,binoculars,snail,cat,corn,airplane,mushroom,bear,car,bread,4,1,1.7635,,corn,inanim_natural,1,line_drawing,1,2,20,10,1,,,,,,
673b1c300a415ab6d503a61d,2025-08-21_17h23.26.381,GLINT,2024.2.4,Win32,59.88023952,,,,,,,,,,,,,,,,,,,,dog,anim_natural,8,butterfly,car,binoculars,apple,corn,cow,house,dog,avocado,8,1,1.407,,dog,anim_natural,1,line_drawing,1,3,21,4,1,,,,,,
673b1c300a415ab6d503a61d,2025-08-21_17h23.26.381,GLINT,2024.2.4,Win32,59.88023952,,,,,,,,,,,,,,,,,,,,apple,inanim_natural,4,snail,cow,lawnmower,apple,airplane,pineapple,cat,bread,house,8,0,2.4921,,bread,inanim_natural,1,line_drawing,1,4,22,9,1,,,,,,
673b1c300a415ab6d503a61d,2025-08-21_17h23.26.381,GLINT,2024.2.4,Win32,59.88023952,,,,,,,,,,,,,,,,,,,,train,inanim_artificial,8,snail,house,bread,pineapple,butterfly,apple,bear,train,binoculars,8,1,1.7871,,train,inanim_artificial,1,line_drawing,1,5,23,17,1,,,,,,
673b1c300a415ab6d503a61d,2025-08-21_17h23.26.381,GLINT,2024.2.4,Win32,59.88023952,,,,,,,,,,,,,,,,,,,,airplane,inanim_artificial,4,butterfly,cat,apple,airplane,train,pineapple,house,corn,snail,4,1,1.4322,,airplane,inanim_artificial,1,line_drawing,1,6,24,12,1,,,,,,
673b1c300a415ab6d503a61d,2025-08-21_17h23.26.381,GLINT,2024.2.4,Win32,59.88023952,,,,,,,,,,,,,,,,,,,,car,inanim_artificial,7,cow,corn,lawnmower,butterfly,dog,apple,car,avocado,binoculars,7,1,1.515,,car,inanim_artificial,1,line_drawing,1,7,25,14,1,,,,,,
673b1c300a415ab6d503a61d,2025-08-21_17h23.26.381,GLINT,2024.2.4,Win32,59.88023952,,,,,,,,,,,,,,,,,,,,avocado,inanim_natural,9,mushroom,dog,car,snail,corn,lawnmower,airplane,cat,avocado,9,1,2.0529,,avocado,inanim_natural,1,line_drawing,1,8,26,11,1,,,,,,
673b1c300a415ab6d503a61d,2025-08-21_17h23.26.381,GLINT,2024.2.4,Win32,59.88023952,,,,,,,,,,,,,,,,,,,,binoculars,inanim_artificial,4,lawnmower,bread,cat,binoculars,apple,airplane,avocado,snail,cow,4,1,0.9858,,binoculars,inanim_artificial,1,line_drawing,1,9,27,13,1,,,,,,
673b1c300a415ab6d503a61d,2025-08-21_17h23.26.381,GLINT,2024.2.4,Win32,59.88023952,,,,,,,,,,,,,,,,,,,,cow,anim_natural,1,cow,corn,house,avocado,car,mushroom,dog,butterfly,train,1,1,1.3311,,cow,anim_natural,1,line_drawing,1,10,28,3,1,,,,,,
673b1c300a415ab6d503a61d,2025-08-21_17h23.26.381,GLINT,2024.2.4,Win32,59.88023952,,,,,,,,,,,,,,,,,,,,house,inanim_artificial,5,corn,bear,avocado,apple,house,car,lawnmower,butterfly,snail,5,1,0.8031,,house,inanim_artificial,1,line_drawing,1,11,29,15,1,,,,,,
673b1c300a415ab6d503a61d,2025-08-21_17h23.26.381,GLINT,2024.2.4,Win32,59.88023952,,,,,,,,,,,,,,,,,,,,bear,anim_natural,7,apple,airplane,binoculars,dog,avocado,corn,bear,cow,car,4,0,3.2823,,dog,anim_natural,1,line_drawing,1,12,30,0,1,,,,,,
673b1c300a415ab6d503a61d,2025-08-21_17h23.26.381,GLINT,2024.2.4,Win32,59.88023952,,,,,,,,,,,,,,,,,,,,pineapple,inanim_natural,1,pineapple,dog,cat,airplane,train,bear,house,mushroom,apple,1,1,1.364,,pineapple,inanim_natural,1,line_drawing,1,13,31,8,1,,,,,,
673b1c300a415ab6d503a61d,2025-08-21_17h23.26.381,GLINT,2024.2.4,Win32,59.88023952,,,,,,,,,,,,,,,,,,,,lawnmower,inanim_artificial,5,avocado,bread,apple,binoculars,lawnmower,car,snail,butterfly,cow,5,1,0.752,,lawnmower,inanim_artificial,1,line_drawing,1,14,32,16,1,,,,,,
673b1c300a415ab6d503a61d,2025-08-21_17h23.26.381,GLINT,2024.2.4,Win32,59.88023952,,,,,,,,,,,,,,,,,,,,snail,anim_natural,8,pineapple,train,mushroom,house,lawnmower,dog,bear,snail,bread,3,0,3.51,,mushroom,inanim_natural,0,line_drawing,1,15,33,5,1,,,,,,
673b1c300a415ab6d503a61d,2025-08-21_17h23.26.381,GLINT,2024.2.4,Win32,59.88023952,,,,,,,,,,,,,,,,,,,,bread,inanim_natural,4,lawnmower,butterfly,mushroom,bread,train,bear,apple,cat,binoculars,4,1,0.8829,,bread,inanim_natural,1,line_drawing,1,16,34,6,1,,,,,,
673b1c300a415ab6d503a61d,2025-08-21_17h23.26.381,GLINT,2024.2.4,Win32,59.88023952,,,,,,,,,,,,,,,,,,,,mushroom,inanim_natural,8,pineapple,bear,lawnmower,car,corn,train,cat,mushroom,cow,8,1,2.3491,,mushroom,inanim_natural,1,line_drawing,1,17,35,7,1,,,,,,
673b1c300a415ab6d503a61d,2025-08-21_17h23.26.381,GLINT,2024.2.4,Win32,59.88023952,,,,,,,,,,,,,,,,,,,,airplane,inanim_artificial,2,car,airplane,cat,binoculars,butterfly,pineapple,cow,corn,bread,2,1,1.8817,,airplane,inanim_artificial,1,line_drawing,2,0,36,12,1,,,,,,
673b1c300a415ab6d503a61d,2025-08-21_17h23.26.381,GLINT,2024.2.4,Win32,59.88023952,,,,,,,,,,,,,,,,,,,,binoculars,inanim_artificial,1,binoculars,dog,lawnmower,bear,butterfly,corn,pineapple,airplane,apple,1,1,1.37,,binoculars,inanim_artificial,1,line_drawing,2,1,37,13,1,,,,,,
673b1c300a415ab6d503a61d,2025-08-21_17h23.26.381,GLINT,2024.2.4,Win32,59.88023952,,,,,,,,,,,,,,,,,,,,train,inanim_artificial,2,cow,train,snail,pineapple,bear,car,mushroom,apple,binoculars,2,1,1.726,,train,inanim_artificial,1,line_drawing,2,2,38,17,1,,,,,,
673b1c300a415ab6d503a61d,2025-08-21_17h23.26.381,GLINT,2024.2.4,Win32,59.88023952,,,,,,,,,,,,,,,,,,,,snail,anim_natural,6,house,dog,avocado,bear,train,snail,airplane,pineapple,mushroom,5,0,1.8087,,train,inanim_artificial,0,line_drawing,2,3,39,5,1,,,,,,
673b1c300a415ab6d503a61d,2025-08-21_17h23.26.381,GLINT,2024.2.4,Win32,59.88023952,,,,,,,,,,,,,,,,,,,,cow,anim_natural,7,train,butterfly,lawnmower,avocado,mushroom,pineapple,cow,house,snail,7,1,1.7858,,cow,anim_natural,1,line_drawing,2,4,40,3,1,,,,,,
673b1c300a415ab6d503a61d,2025-08-21_17h23.26.381,GLINT,2024.2.4,Win32,59.88023952,,,,,,,,,,,,,,,,,,,,bread,inanim_natural,3,cat,apple,bread,cow,snail,mushroom,lawnmower,airplane,house,2,0,3.9595,,apple,inanim_natural,1,line_drawing,2,5,41,6,1,,,,,,
673b1c300a415ab6d503a61d,2025-08-21_17h23.26.381,GLINT,2024.2.4,Win32,59.88023952,,,,,,,,,,,,,,,,,,,,cat,anim_natural,4,lawnmower,snail,apple,cat,airplane,cow,pineapple,binoculars,avocado,4,1,0.9282,,cat,anim_natural,1,line_drawing,2,6,42,2,1,,,,,,
673b1c300a415ab6d503a61d,2025-08-21_17h23.26.381,GLINT,2024.2.4,Win32,59.88023952,,,,,,,,,,,,,,,,,,,,corn,inanim_natural,7,snail,pineapple,binoculars,lawnmower,train,cow,corn,butterfly,bread,7,1,1.6716,,corn,inanim_natural,1,line_drawing,2,7,43,10,1,,,,,,
673b1c300a415ab6d503a61d,2025-08-21_17h23.26.381,GLINT,2024.2.4,Win32,59.88023952,,,,,,,,,,,,,,,,,,,,butterfly,anim_natural,8,avocado,mushroom,pineapple,airplane,cat,lawnmower,train,butterfly,cow,8,1,2.4488,,butterfly,anim_natural,1,line_drawing,2,8,44,1,1,,,,,,
673b1c300a415ab6d503a61d,2025-08-21_17h23.26.381,GLINT,2024.2.4,Win32,59.88023952,,,,,,,,,,,,,,,,,,,,bear,anim_natural,2,lawnmower,bear,apple,train,mushroom,bread,dog,cow,binoculars,2,1,1.4322,,bear,anim_natural,1,line_drawing,2,9,45,0,1,,,,,,
673b1c300a415ab6d503a61d,2025-08-21_17h23.26.381,GLINT,2024.2.4,Win32,59.88023952,,,,,,,,,,,,,,,,,,,,lawnmower,inanim_artificial,4,bread,butterfly,pineapple,lawnmower,bear,airplane,snail,train,mushroom,4,1,0.8861,,lawnmower,inanim_artificial,1,line_drawing,2,10,46,16,1,,,,,,
673b1c300a415ab6d503a61d,2025-08-21_17h23.26.381,GLINT,2024.2.4,Win32,59.88023952,,,,,,,,,,,,,,,,,,,,house,inanim_artificial,8,airplane,car,mushroom,butterfly,pineapple,avocado,bear,house,snail,8,1,2.1283,,house,inanim_artificial,1,line_drawing,2,11,47,15,1,,,,,,
673b1c300a415ab6d503a61d,2025-08-21_17h23.26.381,GLINT,2024.2.4,Win32,59.88023952,,,,,,,,,,,,,,,,,,,,avocado,inanim_natural,9,corn,airplane,binoculars,bread,cat,train,snail,butterfly,avocado,9,1,1.9986,,avocado,inanim_natural,1,line_drawing,2,12,48,11,1,,,,,,
673b1c300a415ab6d503a61d,2025-08-21_17h23.26.381,GLINT,2024.2.4,Win32,59.88023952,,,,,,,,,,,,,,,,,,,,pineapple,inanim_natural,6,snail,train,avocado,corn,car,pineapple,butterfly,dog,airplane,6,1,1.5315,,pineapple,inanim_natural,1,line_drawing,2,13,49,8,1,,,,,,
673b1c300a415ab6d503a61d,2025-08-21_17h23.26.381,GLINT,2024.2.4,Win32,59.88023952,,,,,,,,,,,,,,,,,,,,car,inanim_artificial,1,car,cat,bear,corn,avocado,lawnmower,pineapple,house,cow,1,1,1.4664,,car,inanim_artificial,1,line_drawing,2,14,50,14,1,,,,,,
673b1c300a415ab6d503a61d,2025-08-21_17h23.26.381,GLINT,2024.2.4,Win32,59.88023952,,,,,,,,,,,,,,,,,,,,apple,inanim_natural,1,apple,bread,house,corn,cow,car,cat,lawnmower,butterfly,1,1,2.8224,,apple,inanim_natural,1,line_drawing,2,15,51,9,1,,,,,,
673b1c300a415ab6d503a61d,2025-08-21_17h23.26.381,GLINT,2024.2.4,Win32,59.88023952,,,,,,,,,,,,,,,,,,,,mushroom,inanim_natural,3,pineapple,cow,mushroom,airplane,snail,lawnmower,corn,dog,house,3,1,1.9211,,mushroom,inanim_natural,1,line_drawing,2,16,52,7,1,,,,,,
673b1c300a415ab6d503a61d,2025-08-21_17h23.26.381,GLINT,2024.2.4,Win32,59.88023952,,,,,,,,,,,,,,,,,,,,dog,anim_natural,9,cat,avocado,cow,corn,mushroom,lawnmower,house,airplane,dog,1,0,2.8702,,cat,anim_natural,1,line_drawing,2,17,53,4,1,,,,,,
673b1c300a415ab6d503a61d,2025-08-21_17h23.26.381,GLINT,2024.2.4,Win32,59.88023952,,,,,,,,,,,,,,,,,,,,dog,anim_natural,6,mushroom,butterfly,binoculars,snail,train,dog,corn,pineapple,lawnmower,6,1,1.05,,dog,anim_natural,1,line_drawing,3,0,54,4,1,,,,,,
673b1c300a415ab6d503a61d,2025-08-21_17h23.26.381,GLINT,2024.2.4,Win32,59.88023952,,,,,,,,,,,,,,,,,,,,snail,anim_natural,8,house,corn,mushroom,butterfly,cow,apple,binoculars,snail,train,6,0,2.1025,,apple,inanim_natural,0,line_drawing,3,1,55,5,1,,,,,,
673b1c300a415ab6d503a61d,2025-08-21_17h23.26.381,GLINT,2024.2.4,Win32,59.88023952,,,,,,,,,,,,,,,,,,,,airplane,inanim_artificial,2,dog,airplane,mushroom,butterfly,car,cow,binoculars,pineapple,corn,2,1,2.7419,,airplane,inanim_artificial,1,line_drawing,3,2,56,12,1,,,,,,
673b1c300a415ab6d503a61d,2025-08-21_17h23.26.381,GLINT,2024.2.4,Win32,59.88023952,,,,,,,,,,,,,,,,,,,,cow,anim_natural,6,pineapple,train,cat,snail,car,cow,bread,apple,house,6,1,0.823,,cow,anim_natural,1,line_drawing,3,3,57,3,1,,,,,,
673b1c300a415ab6d503a61d,2025-08-21_17h23.26.381,GLINT,2024.2.4,Win32,59.88023952,,,,,,,,,,,,,,,,,,,,lawnmower,inanim_artificial,5,corn,avocado,apple,snail,lawnmower,dog,train,house,cow,5,1,0.6798,,lawnmower,inanim_artificial,1,line_drawing,3,4,58,16,1,,,,,,
673b1c300a415ab6d503a61d,2025-08-21_17h23.26.381,GLINT,2024.2.4,Win32,59.88023952,,,,,,,,,,,,,,,,,,,,bread,inanim_natural,6,dog,apple,house,cow,binoculars,bread,car,cat,pineapple,9,0,2.8138,,pineapple,inanim_natural,1,line_drawing,3,5,59,6,1,,,,,,
673b1c300a415ab6d503a61d,2025-08-21_17h23.26.381,GLINT,2024.2.4,Win32,59.88023952,,,,,,,,,,,,,,,,,,,,bear,anim_natural,5,bread,train,mushroom,cat,bear,binoculars,car,cow,corn,5,1,1.1033,,bear,anim_natural,1,line_drawing,3,6,60,0,1,,,,,,
673b1c300a415ab6d503a61d,2025-08-21_17h23.26.381,GLINT,2024.2.4,Win32,59.88023952,,,,,,,,,,,,,,,,,,,,cat,anim_natural,9,dog,binoculars,corn,avocado,lawnmower,butterfly,airplane,mushroom,cat,1,0,1.6103,,dog,anim_natural,1,line_drawing,3,7,61,2,1,,,,,,
673b1c300a415ab6d503a61d,2025-08-21_17h23.26.381,GLINT,2024.2.4,Win32,59.88023952,,,,,,,,,,,,,,,,,,,,corn,inanim_natural,2,mushroom,corn,binoculars,car,bread,bear,cow,cat,train,2,1,4.2832,,corn,inanim_natural,1,line_drawing,3,8,62,10,1,,,,,,
673b1c300a415ab6d503a61d,2025-08-21_17h23.26.381,GLINT,2024.2.4,Win32,59.88023952,,,,,,,,,,,,,,,,,,,,house,inanim_artificial,7,apple,pineapple,train,butterfly,bear,corn,house,cat,car,7,1,2.2208,,house,inanim_artificial,1,line_drawing,3,9,63,15,1,,,,,,
673b1c300a415ab6d503a61d,2025-08-21_17h23.26.381,GLINT,2024.2.4,Win32,59.88023952,,,,,,,,,,,,,,,,,,,,binoculars,inanim_artificial,1,binoculars,bread,bear,lawnmower,car,avocado,apple,butterfly,cat,1,1,1.1553,,binoculars,inanim_artificial,1,line_drawing,3,10,64,13,1,,,,,,
673b1c300a415ab6d503a61d,2025-08-21_17h23.26.381,GLINT,2024.2.4,Win32,59.88023952,,,,,,,,,,,,,,,,,,,,avocado,inanim_natural,7,butterfly,cat,airplane,pineapple,corn,dog,avocado,car,binoculars,7,1,3.0823,,avocado,inanim_natural,1,line_drawing,3,11,65,11,1,,,,,,
673b1c300a415ab6d503a61d,2025-08-21_17h23.26.381,GLINT,2024.2.4,Win32,59.88023952,,,,,,,,,,,,,,,,,,,,apple,inanim_natural,2,avocado,apple,bread,snail,car,butterfly,bear,house,lawnmower,4,0,2.2508,,snail,anim_natural,0,line_drawing,3,12,66,9,1,,,,,,
673b1c300a415ab6d503a61d,2025-08-21_17h23.26.381,GLINT,2024.2.4,Win32,59.88023952,,,,,,,,,,,,,,,,,,,,butterfly,anim_natural,6,lawnmower,cat,house,pineapple,bread,butterfly,bear,binoculars,apple,6,1,1.2626,,butterfly,anim_natural,1,line_drawing,3,13,67,1,1,,,,,,
673b1c300a415ab6d503a61d,2025-08-21_17h23.26.381,GLINT,2024.2.4,Win32,59.88023952,,,,,,,,,,,,,,,,,,,,car,inanim_artificial,6,binoculars,mushroom,cow,corn,cat,car,bread,house,dog,6,1,2.8434,,car,inanim_artificial,1,line_drawing,3,14,68,14,1,,,,,,
673b1c300a415ab6d503a61d,2025-08-21_17h23.26.381,GLINT,2024.2.4,Win32,59.88023952,,,,,,,,,,,,,,,,,,,,pineapple,inanim_natural,2,car,pineapple,cat,train,dog,airplane,avocado,apple,cow,2,1,0.8834,,pineapple,inanim_natural,1,line_drawing,3,15,69,8,1,,,,,,
673b1c300a415ab6d503a61d,2025-08-21_17h23.26.381,GLINT,2024.2.4,Win32,59.88023952,,,,,,,,,,,,,,,,,,,,train,inanim_artificial,3,bear,dog,train,lawnmower,car,mushroom,corn,snail,avocado,3,1,1.2146,,train,inanim_artificial,1,line_drawing,3,16,70,17,1,,,,,,
673b1c300a415ab6d503a61d,2025-08-21_17h23.26.381,GLINT,2024.2.4,Win32,59.88023952,,,,,,,,,,,,,,,,,,,,mushroom,inanim_natural,2,cat,mushroom,pineapple,airplane,binoculars,house,bear,dog,bread,3,0,2.6768,,pineapple,inanim_natural,1,line_drawing,3,17,71,7,1,,,,,,
673b1c300a415ab6d503a61d,2025-08-21_17h23.26.381,GLINT,2024.2.4,Win32,59.88023952,,,,,,,,,,,,,,,,,,,,,,,,,,,,,,,,,,,,,,,,,,,,,0,1,1,1,1,line_drawing
673b1c300a415ab6d503a61d,2025-08-21_17h23.26.381,GLINT,2024.2.4,Win32,59.88023952,,,,,,,,,,,,,,,,,,,,car,inanim_artificial,1,car,airplane,bear,apple,lawnmower,snail,corn,pineapple,cow,1,1,1.0211,,car,inanim_artificial,1,natural,0,0,0,14,1,,,,,,
673b1c300a415ab6d503a61d,2025-08-21_17h23.26.381,GLINT,2024.2.4,Win32,59.88023952,,,,,,,,,,,,,,,,,,,,train,inanim_artificial,1,train,bear,lawnmower,mushroom,airplane,cow,snail,avocado,corn,1,1,1.9182,,train,inanim_artificial,1,natural,0,1,1,17,1,,,,,,
673b1c300a415ab6d503a61d,2025-08-21_17h23.26.381,GLINT,2024.2.4,Win32,59.88023952,,,,,,,,,,,,,,,,,,,,snail,anim_natural,3,car,bear,snail,train,cow,pineapple,house,avocado,corn,3,1,2.0635,,snail,anim_natural,1,natural,0,2,2,5,1,,,,,,
673b1c300a415ab6d503a61d,2025-08-21_17h23.26.381,GLINT,2024.2.4,Win32,59.88023952,,,,,,,,,,,,,,,,,,,,pineapple,inanim_natural,5,dog,apple,bread,car,pineapple,cow,airplane,butterfly,house,5,1,0.7814,,pineapple,inanim_natural,1,natural,0,3,3,8,1,,,,,,
673b1c300a415ab6d503a61d,2025-08-21_17h23.26.381,GLINT,2024.2.4,Win32,59.88023952,,,,,,,,,,,,,,,,,,,,cat,anim_natural,2,butterfly,cat,apple,house,car,binoculars,bread,pineapple,dog,2,1,0.8006,,cat,anim_natural,1,natural,0,4,4,2,1,,,,,,
673b1c300a415ab6d503a61d,2025-08-21_17h23.26.381,GLINT,2024.2.4,Win32,59.88023952,,,,,,,,,,,,,,,,,,,,dog,anim_natural,2,bread,dog,pineapple,cow,car,apple,train,snail,binoculars,2,1,1.51,,dog,anim_natural,1,natural,0,5,5,4,1,,,,,,
673b1c300a415ab6d503a61d,2025-08-21_17h23.26.381,GLINT,2024.2.4,Win32,59.88023952,,,,,,,,,,,,,,,,,,,,avocado,inanim_natural,4,butterfly,house,binoculars,avocado,train,bread,cow,snail,apple,4,1,1.1247,,avocado,inanim_natural,1,natural,0,6,6,11,1,,,,,,
673b1c300a415ab6d503a61d,2025-08-21_17h23.26.381,GLINT,2024.2.4,Win32,59.88023952,,,,,,,,,,,,,,,,,,,,house,inanim_artificial,7,mushroom,car,butterfly,corn,cat,train,house,dog,bread,7,1,2.1622,,house,inanim_artificial,1,natural,0,7,7,15,1,,,,,,
673b1c300a415ab6d503a61d,2025-08-21_17h23.26.381,GLINT,2024.2.4,Win32,59.88023952,,,,,,,,,,,,,,,,,,,,mushroom,inanim_natural,4,pineapple,snail,bear,mushroom,house,avocado,train,airplane,cat,4,1,0.8318,,mushroom,inanim_natural,1,natural,0,8,8,7,1,,,,,,
673b1c300a415ab6d503a61d,2025-08-21_17h23.26.381,GLINT,2024.2.4,Win32,59.88023952,,,,,,,,,,,,,,,,,,,,bread,inanim_natural,1,bread,butterfly,train,mushroom,cat,dog,lawnmower,corn,car,1,1,1.4889,,bread,inanim_natural,1,natural,0,9,9,6,1,,,,,,
673b1c300a415ab6d503a61d,2025-08-21_17h23.26.381,GLINT,2024.2.4,Win32,59.88023952,,,,,,,,,,,,,,,,,,,,bear,anim_natural,6,lawnmower,cat,butterfly,mushroom,airplane,bear,bread,avocado,house,6,1,1.1374,,bear,anim_natural,1,natural,0,10,10,0,1,,,,,,
673b1c300a415ab6d503a61d,2025-08-21_17h23.26.381,GLINT,2024.2.4,Win32,59.88023952,,,,,,,,,,,,,,,,,,,,apple,inanim_natural,7,car,corn,cow,pineapple,train,house,apple,dog,snail,7,1,1.4352,,apple,inanim_natural,1,natural,0,11,11,9,1,,,,,,
673b1c300a415ab6d503a61d,2025-08-21_17h23.26.381,GLINT,2024.2.4,Win32,59.88023952,,,,,,,,,,,,,,,,,,,,corn,inanim_natural,3,car,snail,corn,binoculars,dog,train,butterfly,avocado,pineapple,3,1,2.4053,,corn,inanim_natural,1,natural,0,12,12,10,1,,,,,,
673b1c300a415ab6d503a61d,2025-08-21_17h23.26.381,GLINT,2024.2.4,Win32,59.88023952,,,,,,,,,,,,,,,,,,,,butterfly,anim_natural,7,corn,dog,pineapple,apple,binoculars,snail,butterfly,train,airplane,7,1,1.5488,,butterfly,anim_natural,1,natural,0,13,13,1,1,,,,,,
673b1c300a415ab6d503a61d,2025-08-21_17h23.26.381,GLINT,2024.2.4,Win32,59.88023952,,,,,,,,,,,,,,,,,,,,binoculars,inanim_artificial,3,airplane,bear,binoculars,mushroom,dog,cat,apple,train,corn,3,1,1.4192,,binoculars,inanim_artificial,1,natural,0,14,14,13,1,,,,,,
673b1c300a415ab6d503a61d,2025-08-21_17h23.26.381,GLINT,2024.2.4,Win32,59.88023952,,,,,,,,,,,,,,,,,,,,airplane,inanim_artificial,9,apple,snail,house,avocado,cow,train,dog,pineapple,airplane,9,1,2.2246,,airplane,inanim_artificial,1,natural,0,15,15,12,1,,,,,,
673b1c300a415ab6d503a61d,2025-08-21_17h23.26.381,GLINT,2024.2.4,Win32,59.88023952,,,,,,,,,,,,,,,,,,,,lawnmower,inanim_artificial,9,corn,airplane,mushroom,cat,snail,dog,pineapple,binoculars,lawnmower,9,1,1.8233,,lawnmower,inanim_artificial,1,natural,0,16,16,16,1,,,,,,
673b1c300a415ab6d503a61d,2025-08-21_17h23.26.381,GLINT,2024.2.4,Win32,59.88023952,,,,,,,,,,,,,,,,,,,,cow,anim_natural,7,bear,avocado,car,mushroom,dog,airplane,cow,corn,house,7,1,2.653,,cow,anim_natural,1,natural,0,17,17,3,1,,,,,,
673b1c300a415ab6d503a61d,2025-08-21_17h23.26.381,GLINT,2024.2.4,Win32,59.88023952,,,,,,,,,,,,,,,,,,,,corn,inanim_natural,6,butterfly,binoculars,house,snail,pineapple,corn,dog,bread,train,6,1,2.0816,,corn,inanim_natural,1,natural,1,0,18,10,1,,,,,,
673b1c300a415ab6d503a61d,2025-08-21_17h23.26.381,GLINT,2024.2.4,Win32,59.88023952,,,,,,,,,,,,,,,,,,,,cow,anim_natural,3,car,lawnmower,cow,apple,corn,dog,train,bread,cat,3,1,2.0941,,cow,anim_natural,1,natural,1,1,19,3,1,,,,,,
673b1c300a415ab6d503a61d,2025-08-21_17h23.26.381,GLINT,2024.2.4,Win32,59.88023952,,,,,,,,,,,,,,,,,,,,snail,anim_natural,4,bread,pineapple,train,snail,binoculars,apple,cat,bear,airplane,4,1,1.0966,,snail,anim_natural,1,natural,1,2,20,5,1,,,,,,
673b1c300a415ab6d503a61d,2025-08-21_17h23.26.381,GLINT,2024.2.4,Win32,59.88023952,,,,,,,,,,,,,,,,,,,,bear,anim_natural,6,snail,house,lawnmower,apple,butterfly,bear,bread,car,avocado,6,1,2.0704,,bear,anim_natural,1,natural,1,3,21,0,1,,,,,,
673b1c300a415ab6d503a61d,2025-08-21_17h23.26.381,GLINT,2024.2.4,Win32,59.88023952,,,,,,,,,,,,,,,,,,,,butterfly,anim_natural,4,avocado,bread,cat,butterfly,snail,train,binoculars,pineapple,airplane,4,1,1.3475,,butterfly,anim_natural,1,natural,1,4,22,1,1,,,,,,
673b1c300a415ab6d503a61d,2025-08-21_17h23.26.381,GLINT,2024.2.4,Win32,59.88023952,,,,,,,,,,,,,,,,,,,,bread,inanim_natural,5,snail,butterfly,cow,apple,bread,airplane,house,avocado,lawnmower,5,1,0.6263,,bread,inanim_natural,1,natural,1,5,23,6,1,,,,,,
673b1c300a415ab6d503a61d,2025-08-21_17h23.26.381,GLINT,2024.2.4,Win32,59.88023952,,,,,,,,,,,,,,,,,,,,mushroom,inanim_natural,8,train,airplane,cow,cat,lawnmower,corn,bread,mushroom,bear,8,1,1.2013,,mushroom,inanim_natural,1,natural,1,6,24,7,1,,,,,,
673b1c300a415ab6d503a61d,2025-08-21_17h23.26.381,GLINT,2024.2.4,Win32,59.88023952,,,,,,,,,,,,,,,,,,,,binoculars,inanim_artificial,2,butterfly,binoculars,dog,cow,mushroom,train,bread,corn,lawnmower,2,1,1.0659,,binoculars,inanim_artificial,1,natural,1,7,25,13,1,,,,,,
673b1c300a415ab6d503a61d,2025-08-21_17h23.26.381,GLINT,2024.2.4,Win32,59.88023952,,,,,,,,,,,,,,,,,,,,lawnmower,inanim_artificial,3,car,cow,lawnmower,bread,apple,binoculars,bear,avocado,snail,3,1,1.4491,,lawnmower,inanim_artificial,1,natural,1,8,26,16,1,,,,,,
673b1c300a415ab6d503a61d,2025-08-21_17h23.26.381,GLINT,2024.2.4,Win32,59.88023952,,,,,,,,,,,,,,,,,,,,cat,anim_natural,9,car,bread,mushroom,apple,cow,bear,house,airplane,cat,9,1,1.7531,,cat,anim_natural,1,natural,1,9,27,2,1,,,,,,
673b1c300a415ab6d503a61d,2025-08-21_17h23.26.381,GLINT,2024.2.4,Win32,59.88023952,,,,,,,,,,,,,,,,,,,,train,inanim_artificial,2,dog,train,pineapple,bear,mushroom,cow,binoculars,lawnmower,apple,2,1,1.1537,,train,inanim_artificial,1,natural,1,10,28,17,1,,,,,,
673b1c300a415ab6d503a61d,2025-08-21_17h23.26.381,GLINT,2024.2.4,Win32,59.88023952,,,,,,,,,,,,,,,,,,,,dog,anim_natural,8,airplane,house,avocado,train,mushroom,cat,cow,dog,apple,8,1,1.4967,,dog,anim_natural,1,natural,1,11,29,4,1,,,,,,
673b1c300a415ab6d503a61d,2025-08-21_17h23.26.381,GLINT,2024.2.4,Win32,59.88023952,,,,,,,,,,,,,,,,,,,,airplane,inanim_artificial,7,corn,bear,train,mushroom,cow,bread,airplane,cat,lawnmower,7,1,2.1675,,airplane,inanim_artificial,1,natural,1,12,30,12,1,,,,,,
673b1c300a415ab6d503a61d,2025-08-21_17h23.26.381,GLINT,2024.2.4,Win32,59.88023952,,,,,,,,,,,,,,,,,,,,apple,inanim_natural,3,mushroom,avocado,apple,cat,bear,train,lawnmower,binoculars,cow,3,1,1.8609,,apple,inanim_natural,1,natural,1,13,31,9,1,,,,,,
673b1c300a415ab6d503a61d,2025-08-21_17h23.26.381,GLINT,2024.2.4,Win32,59.88023952,,,,,,,,,,,,,,,,,,,,car,inanim_artificial,4,lawnmower,bread,snail,car,pineapple,dog,cat,mushroom,binoculars,4,1,1.1658,,car,inanim_artificial,1,natural,1,14,32,14,1,,,,,,
673b1c300a415ab6d503a61d,2025-08-21_17h23.26.381,GLINT,2024.2.4,Win32,59.88023952,,,,,,,,,,,,,,,,,,,,pineapple,inanim_natural,8,airplane,house,apple,bear,train,corn,dog,pineapple,butterfly,8,1,1.0856,,pineapple,inanim_natural,1,natural,1,15,33,8,1,,,,,,
673b1c300a415ab6d503a61d,2025-08-21_17h23.26.381,GLINT,2024.2.4,Win32,59.88023952,,,,,,,,,,,,,,,,,,,,house,inanim_artificial,1,house,airplane,cat,mushroom,bread,lawnmower,apple,butterfly,cow,1,1,1.3144,,house,inanim_artificial,1,natural,1,16,34,15,1,,,,,,
673b1c300a415ab6d503a61d,2025-08-21_17h23.26.381,GLINT,2024.2.4,Win32,59.88023952,,,,,,,,,,,,,,,,,,,,avocado,inanim_natural,3,lawnmower,house,avocado,bear,corn,airplane,snail,cow,apple,3,1,1.7624,,avocado,inanim_natural,1,natural,1,17,35,11,1,,,,,,
673b1c300a415ab6d503a61d,2025-08-21_17h23.26.381,GLINT,2024.2.4,Win32,59.88023952,,,,,,,,,,,,,,,,,,,,pineapple,inanim_natural,1,pineapple,butterfly,corn,train,lawnmower,cat,avocado,airplane,snail,1,1,0.9986,,pineapple,inanim_natural,1,natural,2,0,36,8,1,,,,,,
673b1c300a415ab6d503a61d,2025-08-21_17h23.26.381,GLINT,2024.2.4,Win32,59.88023952,,,,,,,,,,,,,,,,,,,,corn,inanim_natural,2,avocado,corn,binoculars,apple,lawnmower,cat,bear,house,dog,2,1,2.1973,,corn,inanim_natural,1,natural,2,1,37,10,1,,,,,,
673b1c300a415ab6d503a61d,2025-08-21_17h23.26.381,GLINT,2024.2.4,Win32,59.88023952,,,,,,,,,,,,,,,,,,,,bear,anim_natural,3,butterfly,train,bear,cat,binoculars,avocado,mushroom,pineapple,lawnmower,3,1,1.8227,,bear,anim_natural,1,natural,2,2,38,0,1,,,,,,
673b1c300a415ab6d503a61d,2025-08-21_17h23.26.381,GLINT,2024.2.4,Win32,59.88023952,,,,,,,,,,,,,,,,,,,,dog,anim_natural,2,butterfly,dog,house,airplane,mushroom,bread,train,cow,corn,2,1,0.9296,,dog,anim_natural,1,natural,2,3,39,4,1,,,,,,
673b1c300a415ab6d503a61d,2025-08-21_17h23.26.381,GLINT,2024.2.4,Win32,59.88023952,,,,,,,,,,,,,,,,,,,,binoculars,inanim_artificial,1,binoculars,dog,airplane,car,pineapple,mushroom,bread,snail,cat,1,1,1.2985,,binoculars,inanim_artificial,1,natural,2,4,40,13,1,,,,,,
673b1c300a415ab6d503a61d,2025-08-21_17h23.26.381,GLINT,2024.2.4,Win32,59.88023952,,,,,,,,,,,,,,,,,,,,avocado,inanim_natural,2,train,avocado,dog,bread,apple,house,airplane,cat,snail,2,1,1.7721,,avocado,inanim_natural,1,natural,2,5,41,11,1,,,,,,
673b1c300a415ab6d503a61d,2025-08-21_17h23.26.381,GLINT,2024.2.4,Win32,59.88023952,,,,,,,,,,,,,,,,,,,,cat,anim_natural,6,butterfly,corn,snail,avocado,binoculars,cat,train,lawnmower,mushroom,6,1,1.1571,,cat,anim_natural,1,natural,2,6,42,2,1,,,,,,
673b1c300a415ab6d503a61d,2025-08-21_17h23.26.381,GLINT,2024.2.4,Win32,59.88023952,,,,,,,,,,,,,,,,,,,,train,inanim_artificial,8,cat,mushroom,bread,snail,binoculars,airplane,dog,train,pineapple,8,1,2.2598,,train,inanim_artificial,1,natural,2,7,43,17,1,,,,,,
673b1c300a415ab6d503a61d,2025-08-21_17h23.26.381,GLINT,2024.2.4,Win32,59.88023952,,,,,,,,,,,,,,,,,,,,cow,anim_natural,2,car,cow,lawnmower,train,cat,corn,bear,pineapple,avocado,2,1,1.1972,,cow,anim_natural,1,natural,2,8,44,3,1,,,,,,
673b1c300a415ab6d503a61d,2025-08-21_17h23.26.381,GLINT,2024.2.4,Win32,59.88023952,,,,,,,,,,,,,,,,,,,,mushroom,inanim_natural,4,airplane,bread,train,mushroom,bear,cow,apple,car,butterfly,4,1,1.0321,,mushroom,inanim_natural,1,natural,2,9,45,7,1,,,,,,
673b1c300a415ab6d503a61d,2025-08-21_17h23.26.381,GLINT,2024.2.4,Win32,59.88023952,,,,,,,,,,,,,,,,,,,,car,inanim_artificial,8,house,corn,bear,dog,binoculars,avocado,apple,car,snail,8,1,1.2402,,car,inanim_artificial,1,natural,2,10,46,14,1,,,,,,
673b1c300a415ab6d503a61d,2025-08-21_17h23.26.381,GLINT,2024.2.4,Win32,59.88023952,,,,,,,,,,,,,,,,,,,,airplane,inanim_artificial,6,apple,binoculars,cow,cat,bread,airplane,butterfly,avocado,car,6,1,1.0887,,airplane,inanim_artificial,1,natural,2,11,47,12,1,,,,,,
673b1c300a415ab6d503a61d,2025-08-21_17h23.26.381,GLINT,2024.2.4,Win32,59.88023952,,,,,,,,,,,,,,,,,,,,butterfly,anim_natural,8,corn,snail,pineapple,dog,bread,train,lawnmower,butterfly,house,8,1,1.171,,butterfly,anim_natural,1,natural,2,12,48,1,1,,,,,,
673b1c300a415ab6d503a61d,2025-08-21_17h23.26.381,GLINT,2024.2.4,Win32,59.88023952,,,,,,,,,,,,,,,,,,,,bread,inanim_natural,5,bear,dog,pineapple,house,bread,airplane,butterfly,train,corn,5,1,0.9305,,bread,inanim_natural,1,natural,2,13,49,6,1,,,,,,
673b1c300a415ab6d503a61d,2025-08-21_17h23.26.381,GLINT,2024.2.4,Win32,59.88023952,,,,,,,,,,,,,,,,,,,,house,inanim_artificial,6,apple,dog,car,butterfly,pineapple,house,train,avocado,cow,6,1,1.5717,,house,inanim_artificial,1,natural,2,14,50,15,1,,,,,,
673b1c300a415ab6d503a61d,2025-08-21_17h23.26.381,GLINT,2024.2.4,Win32,59.88023952,,,,,,,,,,,,,,,,,,,,snail,anim_natural,8,bread,train,house,avocado,mushroom,binoculars,bear,snail,dog,8,1,1.0899,,snail,anim_natural,1,natural,2,15,51,5,1,,,,,,
673b1c300a415ab6d503a61d,2025-08-21_17h23.26.381,GLINT,2024.2.4,Win32,59.88023952,,,,,,,,,,,,,,,,,,,,apple,inanim_natural,4,dog,car,lawnmower,apple,mushroom,butterfly,cat,train,bread,4,1,1.0279,,apple,inanim_natural,1,natural,2,16,52,9,1,,,,,,
673b1c300a415ab6d503a61d,2025-08-21_17h23.26.381,GLINT,2024.2.4,Win32,59.88023952,,,,,,,,,,,,,,,,,,,,lawnmower,inanim_artificial,7,dog,apple,binoculars,mushroom,bear,train,lawnmower,pineapple,cat,7,1,1.1934,,lawnmower,inanim_artificial,1,natural,2,17,53,16,1,,,,,,
673b1c300a415ab6d503a61d,2025-08-21_17h23.26.381,GLINT,2024.2.4,Win32,59.88023952,,,,,,,,,,,,,,,,,,,,car,inanim_artificial,7,train,dog,lawnmower,mushroom,cow,snail,car,avocado,bread,7,1,1.3627,,car,inanim_artificial,1,natural,3,0,54,14,1,,,,,,
673b1c300a415ab6d503a61d,2025-08-21_17h23.26.381,GLINT,2024.2.4,Win32,59.88023952,,,,,,,,,,,,,,,,,,,,bread,inanim_natural,7,bear,car,airplane,pineapple,snail,corn,bread,house,cow,7,1,2.8231,,bread,inanim_natural,1,natural,3,1,55,6,1,,,,,,
673b1c300a415ab6d503a61d,2025-08-21_17h23.26.381,GLINT,2024.2.4,Win32,59.88023952,,,,,,,,,,,,,,,,,,,,cow,anim_natural,9,pineapple,avocado,car,mushroom,butterfly,lawnmower,house,dog,cow,9,1,1.2916,,cow,anim_natural,1,natural,3,2,56,3,1,,,,,,
673b1c300a415ab6d503a61d,2025-08-21_17h23.26.381,GLINT,2024.2.4,Win32,59.88023952,,,,,,,,,,,,,,,,,,,,train,inanim_artificial,9,apple,binoculars,cow,lawnmower,cat,bear,corn,bread,train,9,1,1.8825,,train,inanim_artificial,1,natural,3,3,57,17,1,,,,,,
673b1c300a415ab6d503a61d,2025-08-21_17h23.26.381,GLINT,2024.2.4,Win32,59.88023952,,,,,,,,,,,,,,,,,,,,apple,inanim_natural,2,avocado,apple,snail,butterfly,cow,train,house,bread,airplane,2,1,1.4037,,apple,inanim_natural,1,natural,3,4,58,9,1,,,,,,
673b1c300a415ab6d503a61d,2025-08-21_17h23.26.381,GLINT,2024.2.4,Win32,59.88023952,,,,,,,,,,,,,,,,,,,,pineapple,inanim_natural,9,train,car,corn,dog,mushroom,binoculars,butterfly,bear,pineapple,9,1,1.1477,,pineapple,inanim_natural,1,natural,3,5,59,8,1,,,,,,
673b1c300a415ab6d503a61d,2025-08-21_17h23.26.381,GLINT,2024.2.4,Win32,59.88023952,,,,,,,,,,,,,,,,,,,,airplane,inanim_artificial,3,butterfly,dog,airplane,car,avocado,cat,pineapple,corn,house,3,1,1.4286,,airplane,inanim_artificial,1,natural,3,6,60,12,1,,,,,,
673b1c300a415ab6d503a61d,2025-08-21_17h23.26.381,GLINT,2024.2.4,Win32,59.88023952,,,,,,,,,,,,,,,,,,,,house,inanim_artificial,3,cow,binoculars,house,bear,pineapple,bread,train,avocado,butterfly,3,1,3.8651,,house,inanim_artificial,1,natural,3,7,61,15,1,,,,,,
673b1c300a415ab6d503a61d,2025-08-21_17h23.26.381,GLINT,2024.2.4,Win32,59.88023952,,,,,,,,,,,,,,,,,,,,dog,anim_natural,6,bread,apple,avocado,binoculars,car,dog,airplane,cat,cow,6,1,1.2024,,dog,anim_natural,1,natural,3,8,62,4,1,,,,,,
673b1c300a415ab6d503a61d,2025-08-21_17h23.26.381,GLINT,2024.2.4,Win32,59.88023952,,,,,,,,,,,,,,,,,,,,lawnmower,inanim_artificial,6,bread,apple,train,avocado,cat,lawnmower,airplane,snail,butterfly,6,1,0.7719,,lawnmower,inanim_artificial,1,natural,3,9,63,16,1,,,,,,
673b1c300a415ab6d503a61d,2025-08-21_17h23.26.381,GLINT,2024.2.4,Win32,59.88023952,,,,,,,,,,,,,,,,,,,,butterfly,anim_natural,1,butterfly,cat,bread,avocado,apple,airplane,binoculars,dog,car,1,1,1.5186,,butterfly,anim_natural,1,natural,3,10,64,1,1,,,,,,
673b1c300a415ab6d503a61d,2025-08-21_17h23.26.381,GLINT,2024.2.4,Win32,59.88023952,,,,,,,,,,,,,,,,,,,,cat,anim_natural,9,pineapple,cow,car,apple,dog,house,avocado,binoculars,cat,9,1,1.5899,,cat,anim_natural,1,natural,3,11,65,2,1,,,,,,
673b1c300a415ab6d503a61d,2025-08-21_17h23.26.381,GLINT,2024.2.4,Win32,59.88023952,,,,,,,,,,,,,,,,,,,,corn,inanim_natural,3,avocado,apple,corn,house,cow,dog,car,bear,binoculars,3,1,2.4606,,corn,inanim_natural,1,natural,3,12,66,10,1,,,,,,
673b1c300a415ab6d503a61d,2025-08-21_17h23.26.381,GLINT,2024.2.4,Win32,59.88023952,,,,,,,,,,,,,,,,,,,,avocado,inanim_natural,1,avocado,mushroom,pineapple,bear,house,snail,cow,lawnmower,car,1,1,1.1408,,avocado,inanim_natural,1,natural,3,13,67,11,1,,,,,,
673b1c300a415ab6d503a61d,2025-08-21_17h23.26.381,GLINT,2024.2.4,Win32,59.88023952,,,,,,,,,,,,,,,,,,,,mushroom,inanim_natural,8,binoculars,train,dog,butterfly,bear,corn,avocado,mushroom,car,8,1,1.2604,,mushroom,inanim_natural,1,natural,3,14,68,7,1,,,,,,
673b1c300a415ab6d503a61d,2025-08-21_17h23.26.381,GLINT,2024.2.4,Win32,59.88023952,,,,,,,,,,,,,,,,,,,,snail,anim_natural,6,bear,mushroom,cow,house,apple,snail,car,corn,train,6,1,1.4671,,snail,anim_natural,1,natural,3,15,69,5,1,,,,,,
673b1c300a415ab6d503a61d,2025-08-21_17h23.26.381,GLINT,2024.2.4,Win32,59.88023952,,,,,,,,,,,,,,,,,,,,bear,anim_natural,5,pineapple,snail,dog,corn,bear,train,house,avocado,airplane,5,1,3.1697,,bear,anim_natural,1,natural,3,16,70,0,1,,,,,,
673b1c300a415ab6d503a61d,2025-08-21_17h23.26.381,GLINT,2024.2.4,Win32,59.88023952,,,,,,,,,,,,,,,,,,,,binoculars,inanim_artificial,1,binoculars,butterfly,pineapple,mushroom,cat,bread,cow,house,train,1,1,1.6715,,binoculars,inanim_artificial,1,natural,3,17,71,13,1,,,,,,
673b1c300a415ab6d503a61d,2025-08-21_17h23.26.381,GLINT,2024.2.4,Win32,59.88023952,,,,,,,,,,,,,,,,,,,,,,,,,,,,,,,,,,,,,,,,,,,,,0,2,2,0,1,natural
