participant,date,expName,psychopyVersion,OS,frameRate,CorrectResponse,prac_prompt_1,prac_prompt_2,prac_prompt_3,prac_prompt_4,prac_prompt_5,prac_prompt_6,prac_prompt_7,prac_prompt_8,prac_prompt_9,prac_key_resp.keys,prac_key_resp.corr,prac_key_resp.rt,prac_key_resp.duration,prac_loop.thisRepN,prac_loop.thisTrialN,prac_loop.thisN,prac_loop.thisIndex,prac_loop.ran,object_class,object_category,corr_ans,prompt_1,prompt_2,prompt_3,prompt_4,prompt_5,prompt_6,prompt_7,prompt_8,prompt_9,key_resp.keys,key_resp.corr,key_resp.rt,key_resp.duration,response_label,response_animacy,corr_animacy,img_condition,test_loop.thisRepN,test_loop.thisTrialN,test_loop.thisN,test_loop.thisIndex,test_loop.ran,randomize_blocks.thisRepN,randomize_blocks.thisTrialN,randomize_blocks.thisN,randomize_blocks.thisIndex,randomize_blocks.ran,block_condition
{{Olivia}},2025-08-20_14h32.55.258,GLINT,2024.2.4,MacIntel,63.29113924,,,,,,,,,,,,,,,,,,,,,,,,,,,,,,,,,,,,,,,,,,,,,,,,,,
{{Olivia}},2025-08-20_14h32.55.258,GLINT,2024.2.4,MacIntel,63.29113924,,,,,,,,,,,,,,,,,,,,,,,,,,,,,,,,,,,,,,,,,,,,,,,,,,
{{Olivia}},2025-08-20_14h32.55.258,GLINT,2024.2.4,MacIntel,63.29113924,,,,,,,,,,,,,,,,,,,,,,,,,,,,,,,,,,,,,,,,,,,,,,,,,,
{{Olivia}},2025-08-20_14h32.55.258,GLINT,2024.2.4,MacIntel,63.29113924,9,duck,flower,tree,hand,chair,bicycle,leaf,truck,dog,9,1,2.8759,,0,0,0,2,1,dog,anim_natural,,,,,,,,,,,,,,,,,,,,,,,,,,,,,
{{Olivia}},2025-08-20_14h32.55.258,GLINT,2024.2.4,MacIntel,63.29113924,8,truck,hand,chair,bicycle,leaf,dog,tree,duck,flower,8,1,4.2315,,0,1,1,1,1,duck,anim_natural,,,,,,,,,,,,,,,,,,,,,,,,,,,,,
{{Olivia}},2025-08-20_14h32.55.258,GLINT,2024.2.4,MacIntel,63.29113924,7,bicycle,tree,dog,leaf,truck,duck,hand,flower,chair,7,1,6.3722,,0,2,2,0,1,hand,anim_natural,,,,,,,,,,,,,,,,,,,,,,,,,,,,,
{{Olivia}},2025-08-20_14h32.55.258,GLINT,2024.2.4,MacIntel,63.29113924,6,chair,dog,truck,bicycle,flower,tree,leaf,duck,hand,6,1,2.8145,,0,3,3,4,1,tree,inanim_natural,,,,,,,,,,,,,,,,,,,,,,,,,,,,,
{{Olivia}},2025-08-20_14h32.55.258,GLINT,2024.2.4,MacIntel,63.29113924,9,chair,bicycle,leaf,tree,truck,duck,hand,dog,flower,9,1,5.0992,,0,4,4,3,1,flower,inanim_natural,,,,,,,,,,,,,,,,,,,,,,,,,,,,,
{{Olivia}},2025-08-20_14h32.55.258,GLINT,2024.2.4,MacIntel,63.29113924,,,,,,,,,,,,,,,,,,,,train,inanim_artificial,9,mushroom,cat,airplane,lawnmower,avocado,bear,bread,dog,train,9,1,4.9221,,train,inanim_artificial,1,natural,0,0,0,17,1,,,,,,
{{Olivia}},2025-08-20_14h32.55.258,GLINT,2024.2.4,MacIntel,63.29113924,,,,,,,,,,,,,,,,,,,,apple,inanim_natural,4,house,lawnmower,avocado,apple,cat,snail,train,cow,pineapple,4,1,3.5512,,apple,inanim_natural,1,natural,0,1,1,9,1,,,,,,
{{Olivia}},2025-08-20_14h32.55.258,GLINT,2024.2.4,MacIntel,63.29113924,,,,,,,,,,,,,,,,,,,,mushroom,inanim_natural,8,apple,lawnmower,cat,butterfly,car,pineapple,house,mushroom,cow,8,1,2.7453,,mushroom,inanim_natural,1,natural,0,2,2,7,1,,,,,,
{{Olivia}},2025-08-20_14h32.55.258,GLINT,2024.2.4,MacIntel,63.29113924,,,,,,,,,,,,,,,,,,,,house,inanim_artificial,6,binoculars,mushroom,pineapple,cow,cat,house,car,corn,butterfly,6,1,2.4334,,house,inanim_artificial,1,natural,0,3,3,15,1,,,,,,
{{Olivia}},2025-08-20_14h32.55.258,GLINT,2024.2.4,MacIntel,63.29113924,,,,,,,,,,,,,,,,,,,,bear,anim_natural,7,bread,lawnmower,avocado,airplane,dog,mushroom,bear,house,cat,7,1,3.2531,,bear,anim_natural,1,natural,0,4,4,0,1,,,,,,
{{Olivia}},2025-08-20_14h32.55.258,GLINT,2024.2.4,MacIntel,63.29113924,,,,,,,,,,,,,,,,,,,,snail,anim_natural,5,butterfly,airplane,pineapple,house,snail,lawnmower,bread,avocado,cat,5,1,1.5675,,snail,anim_natural,1,natural,0,5,5,5,1,,,,,,
{{Olivia}},2025-08-20_14h32.55.258,GLINT,2024.2.4,MacIntel,63.29113924,,,,,,,,,,,,,,,,,,,,binoculars,inanim_artificial,7,pineapple,snail,butterfly,bear,bread,avocado,binoculars,train,lawnmower,,0,,,no response,no response,0,natural,0,6,6,13,1,,,,,,
{{Olivia}},2025-08-20_14h32.55.258,GLINT,2024.2.4,MacIntel,63.29113924,,,,,,,,,,,,,,,,,,,,car,inanim_artificial,7,cat,airplane,pineapple,binoculars,mushroom,butterfly,car,corn,dog,7,1,4.0188,,car,inanim_artificial,1,natural,0,7,7,14,1,,,,,,
{{Olivia}},2025-08-20_14h32.55.258,GLINT,2024.2.4,MacIntel,63.29113924,,,,,,,,,,,,,,,,,,,,cow,anim_natural,7,train,butterfly,airplane,apple,bread,mushroom,cow,lawnmower,bear,,0,,,no response,no response,0,natural,0,8,8,3,1,,,,,,
{{Olivia}},2025-08-20_14h32.55.258,GLINT,2024.2.4,MacIntel,63.29113924,,,,,,,,,,,,,,,,,,,,avocado,inanim_natural,4,car,lawnmower,pineapple,avocado,apple,cow,cat,house,dog,4,1,1.4607,,avocado,inanim_natural,1,natural,0,9,9,11,1,,,,,,
{{Olivia}},2025-08-20_14h32.55.258,GLINT,2024.2.4,MacIntel,63.29113924,,,,,,,,,,,,,,,,,,,,bread,inanim_natural,9,butterfly,apple,avocado,airplane,cow,train,snail,house,bread,9,1,2.0333,,bread,inanim_natural,1,natural,0,10,10,6,1,,,,,,
{{Olivia}},2025-08-20_14h32.55.258,GLINT,2024.2.4,MacIntel,63.29113924,,,,,,,,,,,,,,,,,,,,corn,inanim_natural,9,lawnmower,car,airplane,apple,bread,butterfly,snail,bear,corn,9,1,2.9428,,corn,inanim_natural,1,natural,0,11,11,10,1,,,,,,
{{Olivia}},2025-08-20_14h32.55.258,GLINT,2024.2.4,MacIntel,63.29113924,,,,,,,,,,,,,,,,,,,,dog,anim_natural,2,binoculars,dog,pineapple,bread,bear,house,lawnmower,cow,mushroom,2,1,3.0508,,dog,anim_natural,1,natural,0,12,12,4,1,,,,,,
{{Olivia}},2025-08-20_14h32.55.258,GLINT,2024.2.4,MacIntel,63.29113924,,,,,,,,,,,,,,,,,,,,cat,anim_natural,6,car,train,pineapple,house,bread,cat,dog,bear,apple,6,1,3.6201,,cat,anim_natural,1,natural,0,13,13,2,1,,,,,,
{{Olivia}},2025-08-20_14h32.55.258,GLINT,2024.2.4,MacIntel,63.29113924,,,,,,,,,,,,,,,,,,,,pineapple,inanim_natural,8,car,butterfly,snail,house,mushroom,apple,cow,pineapple,lawnmower,8,1,2.8127,,pineapple,inanim_natural,1,natural,0,14,14,8,1,,,,,,
{{Olivia}},2025-08-20_14h32.55.258,GLINT,2024.2.4,MacIntel,63.29113924,,,,,,,,,,,,,,,,,,,,lawnmower,inanim_artificial,9,pineapple,butterfly,airplane,mushroom,apple,snail,bear,car,lawnmower,9,1,2.3883,,lawnmower,inanim_artificial,1,natural,0,15,15,16,1,,,,,,
{{Olivia}},2025-08-20_14h32.55.258,GLINT,2024.2.4,MacIntel,63.29113924,,,,,,,,,,,,,,,,,,,,airplane,inanim_artificial,1,airplane,dog,bread,lawnmower,pineapple,cow,corn,bear,house,1,1,4.3869,,airplane,inanim_artificial,1,natural,0,16,16,12,1,,,,,,
{{Olivia}},2025-08-20_14h32.55.258,GLINT,2024.2.4,MacIntel,63.29113924,,,,,,,,,,,,,,,,,,,,butterfly,anim_natural,1,butterfly,airplane,binoculars,house,bear,bread,corn,cat,mushroom,1,1,4.6964,,butterfly,anim_natural,1,natural,0,17,17,1,1,,,,,,
{{Olivia}},2025-08-20_14h32.55.258,GLINT,2024.2.4,MacIntel,63.29113924,,,,,,,,,,,,,,,,,,,,snail,anim_natural,8,butterfly,apple,cat,car,binoculars,mushroom,bread,snail,lawnmower,8,1,2.0692,,snail,anim_natural,1,natural,1,0,18,5,1,,,,,,
{{Olivia}},2025-08-20_14h32.55.258,GLINT,2024.2.4,MacIntel,63.29113924,,,,,,,,,,,,,,,,,,,,butterfly,anim_natural,7,apple,bear,train,airplane,snail,binoculars,butterfly,pineapple,corn,7,1,3.5264,,butterfly,anim_natural,1,natural,1,1,19,1,1,,,,,,
{{Olivia}},2025-08-20_14h32.55.258,GLINT,2024.2.4,MacIntel,63.29113924,,,,,,,,,,,,,,,,,,,,pineapple,inanim_natural,9,avocado,mushroom,train,bear,cow,cat,lawnmower,car,pineapple,9,1,2.1178,,pineapple,inanim_natural,1,natural,1,2,20,8,1,,,,,,
{{Olivia}},2025-08-20_14h32.55.258,GLINT,2024.2.4,MacIntel,63.29113924,,,,,,,,,,,,,,,,,,,,mushroom,inanim_natural,7,bread,cat,train,butterfly,snail,lawnmower,mushroom,airplane,apple,7,1,2.5619,,mushroom,inanim_natural,1,natural,1,3,21,7,1,,,,,,
{{Olivia}},2025-08-20_14h32.55.258,GLINT,2024.2.4,MacIntel,63.29113924,,,,,,,,,,,,,,,,,,,,bread,inanim_natural,3,dog,train,bread,corn,cat,butterfly,lawnmower,car,mushroom,3,1,3.1578,,bread,inanim_natural,1,natural,1,4,22,6,1,,,,,,
{{Olivia}},2025-08-20_14h32.55.258,GLINT,2024.2.4,MacIntel,63.29113924,,,,,,,,,,,,,,,,,,,,car,inanim_artificial,3,binoculars,apple,car,cow,cat,corn,dog,lawnmower,avocado,3,1,3.2787,,car,inanim_artificial,1,natural,1,5,23,14,1,,,,,,
{{Olivia}},2025-08-20_14h32.55.258,GLINT,2024.2.4,MacIntel,63.29113924,,,,,,,,,,,,,,,,,,,,avocado,inanim_natural,1,avocado,lawnmower,binoculars,pineapple,bear,cat,dog,apple,train,1,1,2.9425,,avocado,inanim_natural,1,natural,1,6,24,11,1,,,,,,
{{Olivia}},2025-08-20_14h32.55.258,GLINT,2024.2.4,MacIntel,63.29113924,,,,,,,,,,,,,,,,,,,,cow,anim_natural,1,cow,house,airplane,bear,train,pineapple,apple,cat,bread,1,1,3.902,,cow,anim_natural,1,natural,1,7,25,3,1,,,,,,
{{Olivia}},2025-08-20_14h32.55.258,GLINT,2024.2.4,MacIntel,63.29113924,,,,,,,,,,,,,,,,,,,,train,inanim_artificial,6,bear,butterfly,binoculars,avocado,apple,train,snail,mushroom,airplane,6,1,2.0521,,train,inanim_artificial,1,natural,1,8,26,17,1,,,,,,
{{Olivia}},2025-08-20_14h32.55.258,GLINT,2024.2.4,MacIntel,63.29113924,,,,,,,,,,,,,,,,,,,,dog,anim_natural,5,train,mushroom,cat,airplane,dog,snail,lawnmower,corn,bread,5,1,1.2019,,dog,anim_natural,1,natural,1,9,27,4,1,,,,,,
{{Olivia}},2025-08-20_14h32.55.258,GLINT,2024.2.4,MacIntel,63.29113924,,,,,,,,,,,,,,,,,,,,apple,inanim_natural,3,airplane,butterfly,apple,cat,lawnmower,train,bread,dog,corn,3,1,2.4988,,apple,inanim_natural,1,natural,1,10,28,9,1,,,,,,
{{Olivia}},2025-08-20_14h32.55.258,GLINT,2024.2.4,MacIntel,63.29113924,,,,,,,,,,,,,,,,,,,,house,inanim_artificial,6,mushroom,airplane,avocado,pineapple,bear,house,cow,car,snail,6,1,2.1678,,house,inanim_artificial,1,natural,1,11,29,15,1,,,,,,
{{Olivia}},2025-08-20_14h32.55.258,GLINT,2024.2.4,MacIntel,63.29113924,,,,,,,,,,,,,,,,,,,,cat,anim_natural,1,cat,dog,butterfly,pineapple,lawnmower,house,bread,mushroom,airplane,1,1,1.8842,,cat,anim_natural,1,natural,1,12,30,2,1,,,,,,
{{Olivia}},2025-08-20_14h32.55.258,GLINT,2024.2.4,MacIntel,63.29113924,,,,,,,,,,,,,,,,,,,,corn,inanim_natural,9,snail,binoculars,train,avocado,airplane,cow,apple,cat,corn,9,1,2.0119,,corn,inanim_natural,1,natural,1,13,31,10,1,,,,,,
{{Olivia}},2025-08-20_14h32.55.258,GLINT,2024.2.4,MacIntel,63.29113924,,,,,,,,,,,,,,,,,,,,lawnmower,inanim_artificial,2,cow,lawnmower,snail,corn,dog,car,mushroom,binoculars,pineapple,2,1,2.9848,,lawnmower,inanim_artificial,1,natural,1,14,32,16,1,,,,,,
{{Olivia}},2025-08-20_14h32.55.258,GLINT,2024.2.4,MacIntel,63.29113924,,,,,,,,,,,,,,,,,,,,bear,anim_natural,9,mushroom,apple,butterfly,lawnmower,binoculars,airplane,cow,avocado,bear,9,1,2.1853,,bear,anim_natural,1,natural,1,15,33,0,1,,,,,,
{{Olivia}},2025-08-20_14h32.55.258,GLINT,2024.2.4,MacIntel,63.29113924,,,,,,,,,,,,,,,,,,,,binoculars,inanim_artificial,1,binoculars,corn,apple,car,airplane,avocado,bear,snail,cow,1,1,3.3991,,binoculars,inanim_artificial,1,natural,1,16,34,13,1,,,,,,
{{Olivia}},2025-08-20_14h32.55.258,GLINT,2024.2.4,MacIntel,63.29113924,,,,,,,,,,,,,,,,,,,,airplane,inanim_artificial,1,airplane,corn,mushroom,cat,bear,apple,cow,binoculars,lawnmower,1,1,2.964,,airplane,inanim_artificial,1,natural,1,17,35,12,1,,,,,,
{{Olivia}},2025-08-20_14h32.55.258,GLINT,2024.2.4,MacIntel,63.29113924,,,,,,,,,,,,,,,,,,,,corn,inanim_natural,8,snail,bear,cow,binoculars,train,car,apple,corn,avocado,8,1,2.2166,,corn,inanim_natural,1,natural,2,0,36,10,1,,,,,,
{{Olivia}},2025-08-20_14h32.55.258,GLINT,2024.2.4,MacIntel,63.29113924,,,,,,,,,,,,,,,,,,,,house,inanim_artificial,8,avocado,apple,dog,cow,train,bread,snail,house,lawnmower,8,1,2.3018,,house,inanim_artificial,1,natural,2,1,37,15,1,,,,,,
{{Olivia}},2025-08-20_14h32.55.258,GLINT,2024.2.4,MacIntel,63.29113924,,,,,,,,,,,,,,,,,,,,butterfly,anim_natural,7,apple,bear,bread,airplane,mushroom,dog,butterfly,lawnmower,house,7,1,2.4861,,butterfly,anim_natural,1,natural,2,2,38,1,1,,,,,,
{{Olivia}},2025-08-20_14h32.55.258,GLINT,2024.2.4,MacIntel,63.29113924,,,,,,,,,,,,,,,,,,,,mushroom,inanim_natural,9,bread,apple,car,cat,dog,airplane,train,cow,mushroom,9,1,2.1864,,mushroom,inanim_natural,1,natural,2,3,39,7,1,,,,,,
{{Olivia}},2025-08-20_14h32.55.258,GLINT,2024.2.4,MacIntel,63.29113924,,,,,,,,,,,,,,,,,,,,airplane,inanim_artificial,3,cow,binoculars,airplane,dog,apple,corn,house,pineapple,butterfly,3,1,2.2108,,airplane,inanim_artificial,1,natural,2,4,40,12,1,,,,,,
{{Olivia}},2025-08-20_14h32.55.258,GLINT,2024.2.4,MacIntel,63.29113924,,,,,,,,,,,,,,,,,,,,pineapple,inanim_natural,7,airplane,car,binoculars,cat,butterfly,bread,pineapple,mushroom,bear,7,1,3.7627,,pineapple,inanim_natural,1,natural,2,5,41,8,1,,,,,,
{{Olivia}},2025-08-20_14h32.55.258,GLINT,2024.2.4,MacIntel,63.29113924,,,,,,,,,,,,,,,,,,,,train,inanim_artificial,8,bread,pineapple,apple,snail,car,lawnmower,dog,train,cat,8,1,3.1152,,train,inanim_artificial,1,natural,2,6,42,17,1,,,,,,
{{Olivia}},2025-08-20_14h32.55.258,GLINT,2024.2.4,MacIntel,63.29113924,,,,,,,,,,,,,,,,,,,,avocado,inanim_natural,6,lawnmower,car,cat,apple,binoculars,avocado,snail,mushroom,bear,6,1,2.7012,,avocado,inanim_natural,1,natural,2,7,43,11,1,,,,,,
{{Olivia}},2025-08-20_14h32.55.258,GLINT,2024.2.4,MacIntel,63.29113924,,,,,,,,,,,,,,,,,,,,snail,anim_natural,2,bear,snail,airplane,corn,cat,bread,binoculars,car,pineapple,,0,,,no response,no response,0,natural,2,8,44,5,1,,,,,,
{{Olivia}},2025-08-20_14h32.55.258,GLINT,2024.2.4,MacIntel,63.29113924,,,,,,,,,,,,,,,,,,,,bread,inanim_natural,4,mushroom,cat,dog,bread,snail,house,car,apple,lawnmower,4,1,3.7443,,bread,inanim_natural,1,natural,2,9,45,6,1,,,,,,
{{Olivia}},2025-08-20_14h32.55.258,GLINT,2024.2.4,MacIntel,63.29113924,,,,,,,,,,,,,,,,,,,,apple,inanim_natural,4,train,binoculars,snail,apple,pineapple,butterfly,mushroom,bear,airplane,4,1,2.2139,,apple,inanim_natural,1,natural,2,10,46,9,1,,,,,,
{{Olivia}},2025-08-20_14h32.55.258,GLINT,2024.2.4,MacIntel,63.29113924,,,,,,,,,,,,,,,,,,,,cow,anim_natural,9,mushroom,airplane,house,bread,pineapple,butterfly,train,dog,cow,9,1,2.8634,,cow,anim_natural,1,natural,2,11,47,3,1,,,,,,
{{Olivia}},2025-08-20_14h32.55.258,GLINT,2024.2.4,MacIntel,63.29113924,,,,,,,,,,,,,,,,,,,,bear,anim_natural,9,airplane,binoculars,lawnmower,snail,cat,bread,apple,pineapple,bear,9,1,2.5268,,bear,anim_natural,1,natural,2,12,48,0,1,,,,,,
{{Olivia}},2025-08-20_14h32.55.258,GLINT,2024.2.4,MacIntel,63.29113924,,,,,,,,,,,,,,,,,,,,car,inanim_artificial,2,bear,car,airplane,snail,apple,corn,train,cow,pineapple,2,1,1.9054,,car,inanim_artificial,1,natural,2,13,49,14,1,,,,,,
{{Olivia}},2025-08-20_14h32.55.258,GLINT,2024.2.4,MacIntel,63.29113924,,,,,,,,,,,,,,,,,,,,cat,anim_natural,5,pineapple,snail,bear,house,cat,avocado,lawnmower,corn,car,5,1,1.6182,,cat,anim_natural,1,natural,2,14,50,2,1,,,,,,
{{Olivia}},2025-08-20_14h32.55.258,GLINT,2024.2.4,MacIntel,63.29113924,,,,,,,,,,,,,,,,,,,,lawnmower,inanim_artificial,2,snail,lawnmower,corn,butterfly,house,bear,bread,car,mushroom,2,1,3.2286,,lawnmower,inanim_artificial,1,natural,2,15,51,16,1,,,,,,
{{Olivia}},2025-08-20_14h32.55.258,GLINT,2024.2.4,MacIntel,63.29113924,,,,,,,,,,,,,,,,,,,,binoculars,inanim_artificial,2,snail,binoculars,cat,train,avocado,car,apple,cow,mushroom,2,1,3.3374,,binoculars,inanim_artificial,1,natural,2,16,52,13,1,,,,,,
{{Olivia}},2025-08-20_14h32.55.258,GLINT,2024.2.4,MacIntel,63.29113924,,,,,,,,,,,,,,,,,,,,dog,anim_natural,3,bread,airplane,dog,binoculars,house,avocado,pineapple,butterfly,cow,3,1,1.8989,,dog,anim_natural,1,natural,2,17,53,4,1,,,,,,
{{Olivia}},2025-08-20_14h32.55.258,GLINT,2024.2.4,MacIntel,63.29113924,,,,,,,,,,,,,,,,,,,,bear,anim_natural,2,binoculars,bear,mushroom,pineapple,cat,lawnmower,snail,avocado,train,2,1,3.6328,,bear,anim_natural,1,natural,3,0,54,0,1,,,,,,
{{Olivia}},2025-08-20_14h32.55.258,GLINT,2024.2.4,MacIntel,63.29113924,,,,,,,,,,,,,,,,,,,,train,inanim_artificial,3,mushroom,airplane,train,lawnmower,dog,avocado,corn,cat,cow,3,1,2.5106,,train,inanim_artificial,1,natural,3,1,55,17,1,,,,,,
{{Olivia}},2025-08-20_14h32.55.258,GLINT,2024.2.4,MacIntel,63.29113924,,,,,,,,,,,,,,,,,,,,avocado,inanim_natural,7,car,lawnmower,cow,bear,mushroom,butterfly,avocado,airplane,pineapple,7,1,2.6863,,avocado,inanim_natural,1,natural,3,2,56,11,1,,,,,,
{{Olivia}},2025-08-20_14h32.55.258,GLINT,2024.2.4,MacIntel,63.29113924,,,,,,,,,,,,,,,,,,,,snail,anim_natural,7,corn,airplane,mushroom,cow,train,avocado,snail,dog,binoculars,,0,,,no response,no response,0,natural,3,3,57,5,1,,,,,,
{{Olivia}},2025-08-20_14h32.55.258,GLINT,2024.2.4,MacIntel,63.29113924,,,,,,,,,,,,,,,,,,,,bread,inanim_natural,9,pineapple,house,snail,cow,avocado,dog,lawnmower,car,bread,9,1,3.7288,,bread,inanim_natural,1,natural,3,4,58,6,1,,,,,,
{{Olivia}},2025-08-20_14h32.55.258,GLINT,2024.2.4,MacIntel,63.29113924,,,,,,,,,,,,,,,,,,,,car,inanim_artificial,5,corn,pineapple,bear,binoculars,car,cow,apple,airplane,cat,5,1,1.9275,,car,inanim_artificial,1,natural,3,5,59,14,1,,,,,,
{{Olivia}},2025-08-20_14h32.55.258,GLINT,2024.2.4,MacIntel,63.29113924,,,,,,,,,,,,,,,,,,,,lawnmower,inanim_artificial,1,lawnmower,avocado,cow,car,pineapple,corn,dog,train,snail,1,1,1.2006,,lawnmower,inanim_artificial,1,natural,3,6,60,16,1,,,,,,
{{Olivia}},2025-08-20_14h32.55.258,GLINT,2024.2.4,MacIntel,63.29113924,,,,,,,,,,,,,,,,,,,,airplane,inanim_artificial,4,pineapple,lawnmower,bear,airplane,cow,avocado,corn,cat,train,4,1,2.5942,,airplane,inanim_artificial,1,natural,3,7,61,12,1,,,,,,
{{Olivia}},2025-08-20_14h32.55.258,GLINT,2024.2.4,MacIntel,63.29113924,,,,,,,,,,,,,,,,,,,,corn,inanim_natural,6,car,binoculars,butterfly,apple,bear,corn,mushroom,lawnmower,cat,6,1,2.7513,,corn,inanim_natural,1,natural,3,8,62,10,1,,,,,,
{{Olivia}},2025-08-20_14h32.55.258,GLINT,2024.2.4,MacIntel,63.29113924,,,,,,,,,,,,,,,,,,,,dog,anim_natural,3,mushroom,lawnmower,dog,pineapple,train,butterfly,bread,binoculars,cow,3,1,1.5152,,dog,anim_natural,1,natural,3,9,63,4,1,,,,,,
{{Olivia}},2025-08-20_14h32.55.258,GLINT,2024.2.4,MacIntel,63.29113924,,,,,,,,,,,,,,,,,,,,binoculars,inanim_artificial,9,dog,lawnmower,butterfly,cow,house,apple,mushroom,avocado,binoculars,9,1,2.1947,,binoculars,inanim_artificial,1,natural,3,10,64,13,1,,,,,,
{{Olivia}},2025-08-20_14h32.55.258,GLINT,2024.2.4,MacIntel,63.29113924,,,,,,,,,,,,,,,,,,,,pineapple,inanim_natural,7,cat,bear,dog,avocado,train,mushroom,pineapple,car,airplane,,0,,,no response,no response,0,natural,3,11,65,8,1,,,,,,
{{Olivia}},2025-08-20_14h32.55.258,GLINT,2024.2.4,MacIntel,63.29113924,,,,,,,,,,,,,,,,,,,,butterfly,anim_natural,6,cat,airplane,bread,dog,corn,butterfly,car,binoculars,mushroom,6,1,2.2174,,butterfly,anim_natural,1,natural,3,12,66,1,1,,,,,,
{{Olivia}},2025-08-20_14h32.55.258,GLINT,2024.2.4,MacIntel,63.29113924,,,,,,,,,,,,,,,,,,,,apple,inanim_natural,7,train,house,avocado,bear,cow,binoculars,apple,cat,corn,7,1,3.8496,,apple,inanim_natural,1,natural,3,13,67,9,1,,,,,,
{{Olivia}},2025-08-20_14h32.55.258,GLINT,2024.2.4,MacIntel,63.29113924,,,,,,,,,,,,,,,,,,,,cat,anim_natural,4,binoculars,bear,corn,cat,mushroom,airplane,house,avocado,snail,4,1,2.6934,,cat,anim_natural,1,natural,3,14,68,2,1,,,,,,
{{Olivia}},2025-08-20_14h32.55.258,GLINT,2024.2.4,MacIntel,63.29113924,,,,,,,,,,,,,,,,,,,,mushroom,inanim_natural,8,binoculars,bread,dog,snail,house,cat,avocado,mushroom,airplane,8,1,1.6574,,mushroom,inanim_natural,1,natural,3,15,69,7,1,,,,,,
{{Olivia}},2025-08-20_14h32.55.258,GLINT,2024.2.4,MacIntel,63.29113924,,,,,,,,,,,,,,,,,,,,house,inanim_artificial,8,binoculars,pineapple,lawnmower,snail,bear,bread,corn,house,cat,8,1,4.9344,,house,inanim_artificial,1,natural,3,16,70,15,1,,,,,,
{{Olivia}},2025-08-20_14h32.55.258,GLINT,2024.2.4,MacIntel,63.29113924,,,,,,,,,,,,,,,,,,,,cow,anim_natural,9,bear,butterfly,mushroom,train,bread,house,apple,car,cow,9,1,1.7353,,cow,anim_natural,1,natural,3,17,71,3,1,,,,,,
{{Olivia}},2025-08-20_14h32.55.258,GLINT,2024.2.4,MacIntel,63.29113924,,,,,,,,,,,,,,,,,,,,,,,,,,,,,,,,,,,,,,,,,,,,,0,0,0,0,1,natural
{{Olivia}},2025-08-20_14h32.55.258,GLINT,2024.2.4,MacIntel,63.29113924,,,,,,,,,,,,,,,,,,,,bread,inanim_natural,2,avocado,bread,dog,lawnmower,corn,train,butterfly,cat,car,2,1,2.4146,,bread,inanim_natural,1,scrambled,0,0,0,6,1,,,,,,
{{Olivia}},2025-08-20_14h32.55.258,GLINT,2024.2.4,MacIntel,63.29113924,,,,,,,,,,,,,,,,,,,,corn,inanim_natural,1,corn,butterfly,avocado,binoculars,airplane,lawnmower,bread,cow,bear,1,1,3.6834,,corn,inanim_natural,1,scrambled,0,1,1,10,1,,,,,,
{{Olivia}},2025-08-20_14h32.55.258,GLINT,2024.2.4,MacIntel,63.29113924,,,,,,,,,,,,,,,,,,,,house,inanim_artificial,7,cow,apple,binoculars,bread,cat,bear,house,pineapple,airplane,7,1,3.0206,,house,inanim_artificial,1,scrambled,0,2,2,15,1,,,,,,
{{Olivia}},2025-08-20_14h32.55.258,GLINT,2024.2.4,MacIntel,63.29113924,,,,,,,,,,,,,,,,,,,,bear,anim_natural,8,car,train,snail,cow,corn,pineapple,apple,bear,house,8,1,1.7999,,bear,anim_natural,1,scrambled,0,3,3,0,1,,,,,,
{{Olivia}},2025-08-20_14h32.55.258,GLINT,2024.2.4,MacIntel,63.29113924,,,,,,,,,,,,,,,,,,,,cat,anim_natural,7,avocado,corn,airplane,lawnmower,car,mushroom,cat,bear,snail,7,1,3.3795,,cat,anim_natural,1,scrambled,0,4,4,2,1,,,,,,
{{Olivia}},2025-08-20_14h32.55.258,GLINT,2024.2.4,MacIntel,63.29113924,,,,,,,,,,,,,,,,,,,,car,inanim_artificial,4,house,bear,apple,car,corn,lawnmower,cat,cow,pineapple,4,1,4.1696,,car,inanim_artificial,1,scrambled,0,5,5,14,1,,,,,,
{{Olivia}},2025-08-20_14h32.55.258,GLINT,2024.2.4,MacIntel,63.29113924,,,,,,,,,,,,,,,,,,,,train,inanim_artificial,5,dog,avocado,butterfly,corn,train,house,cow,binoculars,bread,5,1,2.7989,,train,inanim_artificial,1,scrambled,0,6,6,17,1,,,,,,
{{Olivia}},2025-08-20_14h32.55.258,GLINT,2024.2.4,MacIntel,63.29113924,,,,,,,,,,,,,,,,,,,,avocado,inanim_natural,8,train,airplane,lawnmower,pineapple,cat,bread,bear,avocado,snail,,0,,,no response,no response,0,scrambled,0,7,7,11,1,,,,,,
{{Olivia}},2025-08-20_14h32.55.258,GLINT,2024.2.4,MacIntel,63.29113924,,,,,,,,,,,,,,,,,,,,pineapple,inanim_natural,4,corn,house,avocado,pineapple,snail,cow,airplane,binoculars,bear,5,0,3.7498,,snail,anim_natural,0,scrambled,0,8,8,8,1,,,,,,
{{Olivia}},2025-08-20_14h32.55.258,GLINT,2024.2.4,MacIntel,63.29113924,,,,,,,,,,,,,,,,,,,,binoculars,inanim_artificial,8,snail,corn,car,cow,house,butterfly,pineapple,binoculars,avocado,8,1,1.8993,,binoculars,inanim_artificial,1,scrambled,0,9,9,13,1,,,,,,
{{Olivia}},2025-08-20_14h32.55.258,GLINT,2024.2.4,MacIntel,63.29113924,,,,,,,,,,,,,,,,,,,,cow,anim_natural,1,cow,mushroom,airplane,lawnmower,apple,dog,bear,corn,car,1,1,2.2819,,cow,anim_natural,1,scrambled,0,10,10,3,1,,,,,,
{{Olivia}},2025-08-20_14h32.55.258,GLINT,2024.2.4,MacIntel,63.29113924,,,,,,,,,,,,,,,,,,,,airplane,inanim_artificial,1,airplane,apple,bear,corn,car,snail,avocado,lawnmower,cow,1,1,3.1447,,airplane,inanim_artificial,1,scrambled,0,11,11,12,1,,,,,,
{{Olivia}},2025-08-20_14h32.55.258,GLINT,2024.2.4,MacIntel,63.29113924,,,,,,,,,,,,,,,,,,,,mushroom,inanim_natural,8,snail,cat,binoculars,cow,bread,train,pineapple,mushroom,airplane,8,1,2.2518,,mushroom,inanim_natural,1,scrambled,0,12,12,7,1,,,,,,
{{Olivia}},2025-08-20_14h32.55.258,GLINT,2024.2.4,MacIntel,63.29113924,,,,,,,,,,,,,,,,,,,,apple,inanim_natural,5,train,snail,bear,dog,apple,lawnmower,avocado,car,corn,5,1,3.4115,,apple,inanim_natural,1,scrambled,0,13,13,9,1,,,,,,
{{Olivia}},2025-08-20_14h32.55.258,GLINT,2024.2.4,MacIntel,63.29113924,,,,,,,,,,,,,,,,,,,,lawnmower,inanim_artificial,5,corn,airplane,apple,cow,lawnmower,train,dog,snail,pineapple,2,0,2.9653,,airplane,inanim_artificial,1,scrambled,0,14,14,16,1,,,,,,
{{Olivia}},2025-08-20_14h32.55.258,GLINT,2024.2.4,MacIntel,63.29113924,,,,,,,,,,,,,,,,,,,,snail,anim_natural,9,train,cow,apple,butterfly,avocado,binoculars,corn,car,snail,9,1,4.568,,snail,anim_natural,1,scrambled,0,15,15,5,1,,,,,,
{{Olivia}},2025-08-20_14h32.55.258,GLINT,2024.2.4,MacIntel,63.29113924,,,,,,,,,,,,,,,,,,,,butterfly,anim_natural,1,butterfly,train,pineapple,bread,avocado,cow,dog,lawnmower,airplane,1,1,2.1711,,butterfly,anim_natural,1,scrambled,0,16,16,1,1,,,,,,
{{Olivia}},2025-08-20_14h32.55.258,GLINT,2024.2.4,MacIntel,63.29113924,,,,,,,,,,,,,,,,,,,,dog,anim_natural,8,apple,bread,cat,butterfly,pineapple,airplane,house,dog,lawnmower,8,1,4.9446,,dog,anim_natural,1,scrambled,0,17,17,4,1,,,,,,
{{Olivia}},2025-08-20_14h32.55.258,GLINT,2024.2.4,MacIntel,63.29113924,,,,,,,,,,,,,,,,,,,,airplane,inanim_artificial,3,pineapple,dog,airplane,train,avocado,lawnmower,bear,corn,snail,3,1,2.0109,,airplane,inanim_artificial,1,scrambled,1,0,18,12,1,,,,,,
{{Olivia}},2025-08-20_14h32.55.258,GLINT,2024.2.4,MacIntel,63.29113924,,,,,,,,,,,,,,,,,,,,snail,anim_natural,3,avocado,binoculars,snail,mushroom,bear,bread,airplane,cow,house,3,1,4.2267,,snail,anim_natural,1,scrambled,1,1,19,5,1,,,,,,
{{Olivia}},2025-08-20_14h32.55.258,GLINT,2024.2.4,MacIntel,63.29113924,,,,,,,,,,,,,,,,,,,,avocado,inanim_natural,1,avocado,bear,bread,cat,car,pineapple,binoculars,house,cow,1,1,2.8669,,avocado,inanim_natural,1,scrambled,1,2,20,11,1,,,,,,
{{Olivia}},2025-08-20_14h32.55.258,GLINT,2024.2.4,MacIntel,63.29113924,,,,,,,,,,,,,,,,,,,,car,inanim_artificial,3,dog,binoculars,car,avocado,bear,mushroom,pineapple,lawnmower,cow,3,1,2.4347,,car,inanim_artificial,1,scrambled,1,3,21,14,1,,,,,,
{{Olivia}},2025-08-20_14h32.55.258,GLINT,2024.2.4,MacIntel,63.29113924,,,,,,,,,,,,,,,,,,,,house,inanim_artificial,8,bread,corn,car,pineapple,cat,binoculars,cow,house,butterfly,8,1,3.1679,,house,inanim_artificial,1,scrambled,1,4,22,15,1,,,,,,
{{Olivia}},2025-08-20_14h32.55.258,GLINT,2024.2.4,MacIntel,63.29113924,,,,,,,,,,,,,,,,,,,,mushroom,inanim_natural,3,bear,airplane,mushroom,lawnmower,house,cow,bread,cat,apple,3,1,1.8216,,mushroom,inanim_natural,1,scrambled,1,5,23,7,1,,,,,,
{{Olivia}},2025-08-20_14h32.55.258,GLINT,2024.2.4,MacIntel,63.29113924,,,,,,,,,,,,,,,,,,,,bear,anim_natural,2,pineapple,bear,apple,cow,avocado,house,car,binoculars,snail,2,1,3.1335,,bear,anim_natural,1,scrambled,1,6,24,0,1,,,,,,
{{Olivia}},2025-08-20_14h32.55.258,GLINT,2024.2.4,MacIntel,63.29113924,,,,,,,,,,,,,,,,,,,,bread,inanim_natural,5,bear,mushroom,car,cow,bread,binoculars,train,corn,butterfly,5,1,4.3843,,bread,inanim_natural,1,scrambled,1,7,25,6,1,,,,,,
{{Olivia}},2025-08-20_14h32.55.258,GLINT,2024.2.4,MacIntel,63.29113924,,,,,,,,,,,,,,,,,,,,dog,anim_natural,1,dog,corn,bread,avocado,cat,train,cow,house,airplane,1,1,4.0598,,dog,anim_natural,1,scrambled,1,8,26,4,1,,,,,,
{{Olivia}},2025-08-20_14h32.55.258,GLINT,2024.2.4,MacIntel,63.29113924,,,,,,,,,,,,,,,,,,,,lawnmower,inanim_artificial,1,lawnmower,butterfly,dog,bear,corn,bread,apple,house,car,9,0,2.338,,car,inanim_artificial,1,scrambled,1,9,27,16,1,,,,,,
{{Olivia}},2025-08-20_14h32.55.258,GLINT,2024.2.4,MacIntel,63.29113924,,,,,,,,,,,,,,,,,,,,train,inanim_artificial,5,avocado,lawnmower,cat,airplane,train,corn,snail,dog,bread,5,1,4.5667,,train,inanim_artificial,1,scrambled,1,10,28,17,1,,,,,,
{{Olivia}},2025-08-20_14h32.55.258,GLINT,2024.2.4,MacIntel,63.29113924,,,,,,,,,,,,,,,,,,,,cow,anim_natural,6,bear,bread,lawnmower,mushroom,apple,cow,binoculars,car,snail,6,1,2.511,,cow,anim_natural,1,scrambled,1,11,29,3,1,,,,,,
{{Olivia}},2025-08-20_14h32.55.258,GLINT,2024.2.4,MacIntel,63.29113924,,,,,,,,,,,,,,,,,,,,binoculars,inanim_artificial,6,snail,house,pineapple,bear,bread,binoculars,cat,car,apple,6,1,2.3956,,binoculars,inanim_artificial,1,scrambled,1,12,30,13,1,,,,,,
{{Olivia}},2025-08-20_14h32.55.258,GLINT,2024.2.4,MacIntel,63.29113924,,,,,,,,,,,,,,,,,,,,cat,anim_natural,4,pineapple,lawnmower,mushroom,cat,house,snail,cow,corn,train,4,1,2.5174,,cat,anim_natural,1,scrambled,1,13,31,2,1,,,,,,
{{Olivia}},2025-08-20_14h32.55.258,GLINT,2024.2.4,MacIntel,63.29113924,,,,,,,,,,,,,,,,,,,,butterfly,anim_natural,9,train,pineapple,snail,apple,avocado,cow,car,house,butterfly,9,1,1.8823,,butterfly,anim_natural,1,scrambled,1,14,32,1,1,,,,,,
{{Olivia}},2025-08-20_14h32.55.258,GLINT,2024.2.4,MacIntel,63.29113924,,,,,,,,,,,,,,,,,,,,corn,inanim_natural,6,bear,airplane,pineapple,cow,car,corn,mushroom,lawnmower,snail,6,1,3.082,,corn,inanim_natural,1,scrambled,1,15,33,10,1,,,,,,
{{Olivia}},2025-08-20_14h32.55.258,GLINT,2024.2.4,MacIntel,63.29113924,,,,,,,,,,,,,,,,,,,,apple,inanim_natural,4,mushroom,house,binoculars,apple,bear,pineapple,snail,train,cat,4,1,2.7696,,apple,inanim_natural,1,scrambled,1,16,34,9,1,,,,,,
{{Olivia}},2025-08-20_14h32.55.258,GLINT,2024.2.4,MacIntel,63.29113924,,,,,,,,,,,,,,,,,,,,pineapple,inanim_natural,3,butterfly,corn,pineapple,dog,train,binoculars,car,avocado,cat,3,1,3.1785,,pineapple,inanim_natural,1,scrambled,1,17,35,8,1,,,,,,
{{Olivia}},2025-08-20_14h32.55.258,GLINT,2024.2.4,MacIntel,63.29113924,,,,,,,,,,,,,,,,,,,,house,inanim_artificial,2,pineapple,house,bear,train,apple,corn,airplane,cow,snail,2,1,2.31,,house,inanim_artificial,1,scrambled,2,0,36,15,1,,,,,,
{{Olivia}},2025-08-20_14h32.55.258,GLINT,2024.2.4,MacIntel,63.29113924,,,,,,,,,,,,,,,,,,,,train,inanim_artificial,6,butterfly,pineapple,bread,lawnmower,apple,train,bear,car,cat,8,0,2.0995,,car,inanim_artificial,1,scrambled,2,1,37,17,1,,,,,,
{{Olivia}},2025-08-20_14h32.55.258,GLINT,2024.2.4,MacIntel,63.29113924,,,,,,,,,,,,,,,,,,,,car,inanim_artificial,4,snail,airplane,lawnmower,car,cow,butterfly,avocado,corn,mushroom,4,1,2.8653,,car,inanim_artificial,1,scrambled,2,2,38,14,1,,,,,,
{{Olivia}},2025-08-20_14h32.55.258,GLINT,2024.2.4,MacIntel,63.29113924,,,,,,,,,,,,,,,,,,,,lawnmower,inanim_artificial,2,car,lawnmower,airplane,avocado,pineapple,snail,dog,cow,mushroom,3,0,2.2649,,airplane,inanim_artificial,1,scrambled,2,3,39,16,1,,,,,,
{{Olivia}},2025-08-20_14h32.55.258,GLINT,2024.2.4,MacIntel,63.29113924,,,,,,,,,,,,,,,,,,,,cow,anim_natural,5,car,corn,dog,mushroom,cow,binoculars,house,bread,butterfly,5,1,1.6619,,cow,anim_natural,1,scrambled,2,4,40,3,1,,,,,,
{{Olivia}},2025-08-20_14h32.55.258,GLINT,2024.2.4,MacIntel,63.29113924,,,,,,,,,,,,,,,,,,,,corn,inanim_natural,6,lawnmower,avocado,pineapple,train,house,corn,bear,snail,cow,6,1,1.8843,,corn,inanim_natural,1,scrambled,2,5,41,10,1,,,,,,
{{Olivia}},2025-08-20_14h32.55.258,GLINT,2024.2.4,MacIntel,63.29113924,,,,,,,,,,,,,,,,,,,,avocado,inanim_natural,6,bear,train,cat,dog,mushroom,avocado,pineapple,lawnmower,car,6,1,2.9388,,avocado,inanim_natural,1,scrambled,2,6,42,11,1,,,,,,
{{Olivia}},2025-08-20_14h32.55.258,GLINT,2024.2.4,MacIntel,63.29113924,,,,,,,,,,,,,,,,,,,,snail,anim_natural,2,pineapple,snail,binoculars,avocado,corn,airplane,dog,house,butterfly,2,1,4.2492,,snail,anim_natural,1,scrambled,2,7,43,5,1,,,,,,
{{Olivia}},2025-08-20_14h32.55.258,GLINT,2024.2.4,MacIntel,63.29113924,,,,,,,,,,,,,,,,,,,,butterfly,anim_natural,3,dog,train,butterfly,cow,house,binoculars,corn,pineapple,mushroom,3,1,1.6165,,butterfly,anim_natural,1,scrambled,2,8,44,1,1,,,,,,
{{Olivia}},2025-08-20_14h32.55.258,GLINT,2024.2.4,MacIntel,63.29113924,,,,,,,,,,,,,,,,,,,,bear,anim_natural,9,cat,mushroom,binoculars,snail,car,train,bread,corn,bear,9,1,2.4341,,bear,anim_natural,1,scrambled,2,9,45,0,1,,,,,,
{{Olivia}},2025-08-20_14h32.55.258,GLINT,2024.2.4,MacIntel,63.29113924,,,,,,,,,,,,,,,,,,,,dog,anim_natural,2,cat,dog,corn,airplane,snail,apple,bread,train,house,2,1,3.4522,,dog,anim_natural,1,scrambled,2,10,46,4,1,,,,,,
{{Olivia}},2025-08-20_14h32.55.258,GLINT,2024.2.4,MacIntel,63.29113924,,,,,,,,,,,,,,,,,,,,cat,anim_natural,2,dog,cat,snail,lawnmower,mushroom,house,bread,corn,airplane,2,1,3.027,,cat,anim_natural,1,scrambled,2,11,47,2,1,,,,,,
{{Olivia}},2025-08-20_14h32.55.258,GLINT,2024.2.4,MacIntel,63.29113924,,,,,,,,,,,,,,,,,,,,pineapple,inanim_natural,1,pineapple,train,apple,bear,snail,avocado,binoculars,cow,house,1,1,2.666,,pineapple,inanim_natural,1,scrambled,2,12,48,8,1,,,,,,
{{Olivia}},2025-08-20_14h32.55.258,GLINT,2024.2.4,MacIntel,63.29113924,,,,,,,,,,,,,,,,,,,,mushroom,inanim_natural,7,house,bread,lawnmower,pineapple,snail,dog,mushroom,cat,car,7,1,2.671,,mushroom,inanim_natural,1,scrambled,2,13,49,7,1,,,,,,
{{Olivia}},2025-08-20_14h32.55.258,GLINT,2024.2.4,MacIntel,63.29113924,,,,,,,,,,,,,,,,,,,,bread,inanim_natural,3,bear,house,bread,cow,airplane,butterfly,corn,mushroom,lawnmower,7,0,4.5446,,corn,inanim_natural,1,scrambled,2,14,50,6,1,,,,,,
{{Olivia}},2025-08-20_14h32.55.258,GLINT,2024.2.4,MacIntel,63.29113924,,,,,,,,,,,,,,,,,,,,apple,inanim_natural,4,avocado,train,airplane,apple,butterfly,bread,cat,car,snail,4,1,2.2425,,apple,inanim_natural,1,scrambled,2,15,51,9,1,,,,,,
{{Olivia}},2025-08-20_14h32.55.258,GLINT,2024.2.4,MacIntel,63.29113924,,,,,,,,,,,,,,,,,,,,binoculars,inanim_artificial,3,cow,bread,binoculars,pineapple,car,corn,lawnmower,butterfly,dog,3,1,1.801,,binoculars,inanim_artificial,1,scrambled,2,16,52,13,1,,,,,,
{{Olivia}},2025-08-20_14h32.55.258,GLINT,2024.2.4,MacIntel,63.29113924,,,,,,,,,,,,,,,,,,,,airplane,inanim_artificial,8,avocado,snail,corn,butterfly,train,dog,mushroom,airplane,binoculars,8,1,3.4002,,airplane,inanim_artificial,1,scrambled,2,17,53,12,1,,,,,,
{{Olivia}},2025-08-20_14h32.55.258,GLINT,2024.2.4,MacIntel,63.29113924,,,,,,,,,,,,,,,,,,,,train,inanim_artificial,2,apple,train,car,house,cat,cow,corn,mushroom,dog,2,1,1.7038,,train,inanim_artificial,1,scrambled,3,0,54,17,1,,,,,,
{{Olivia}},2025-08-20_14h32.55.258,GLINT,2024.2.4,MacIntel,63.29113924,,,,,,,,,,,,,,,,,,,,airplane,inanim_artificial,4,dog,corn,apple,airplane,cat,train,cow,car,bread,6,0,3.146,,train,inanim_artificial,1,scrambled,3,1,55,12,1,,,,,,
{{Olivia}},2025-08-20_14h32.55.258,GLINT,2024.2.4,MacIntel,63.29113924,,,,,,,,,,,,,,,,,,,,avocado,inanim_natural,4,house,train,airplane,avocado,cat,apple,corn,dog,snail,4,1,2.1961,,avocado,inanim_natural,1,scrambled,3,2,56,11,1,,,,,,
{{Olivia}},2025-08-20_14h32.55.258,GLINT,2024.2.4,MacIntel,63.29113924,,,,,,,,,,,,,,,,,,,,corn,inanim_natural,5,airplane,car,bread,bear,corn,apple,cat,dog,lawnmower,5,1,1.2966,,corn,inanim_natural,1,scrambled,3,3,57,10,1,,,,,,
{{Olivia}},2025-08-20_14h32.55.258,GLINT,2024.2.4,MacIntel,63.29113924,,,,,,,,,,,,,,,,,,,,bear,anim_natural,3,binoculars,dog,bear,mushroom,car,bread,apple,lawnmower,snail,3,1,2.595,,bear,anim_natural,1,scrambled,3,4,58,0,1,,,,,,
{{Olivia}},2025-08-20_14h32.55.258,GLINT,2024.2.4,MacIntel,63.29113924,,,,,,,,,,,,,,,,,,,,cat,anim_natural,7,butterfly,house,binoculars,car,avocado,apple,cat,bread,bear,7,1,1.884,,cat,anim_natural,1,scrambled,3,5,59,2,1,,,,,,
{{Olivia}},2025-08-20_14h32.55.258,GLINT,2024.2.4,MacIntel,63.29113924,,,,,,,,,,,,,,,,,,,,cow,anim_natural,9,train,car,bear,bread,mushroom,pineapple,binoculars,snail,cow,5,0,1.7823,,mushroom,inanim_natural,0,scrambled,3,6,60,3,1,,,,,,
{{Olivia}},2025-08-20_14h32.55.258,GLINT,2024.2.4,MacIntel,63.29113924,,,,,,,,,,,,,,,,,,,,binoculars,inanim_artificial,4,house,cat,apple,binoculars,avocado,dog,pineapple,airplane,cow,4,1,2.856,,binoculars,inanim_artificial,1,scrambled,3,7,61,13,1,,,,,,
{{Olivia}},2025-08-20_14h32.55.258,GLINT,2024.2.4,MacIntel,63.29113924,,,,,,,,,,,,,,,,,,,,car,inanim_artificial,6,train,apple,avocado,cow,dog,car,house,cat,pineapple,6,1,3.497,,car,inanim_artificial,1,scrambled,3,8,62,14,1,,,,,,
{{Olivia}},2025-08-20_14h32.55.258,GLINT,2024.2.4,MacIntel,63.29113924,,,,,,,,,,,,,,,,,,,,butterfly,anim_natural,7,lawnmower,bear,airplane,bread,cow,apple,butterfly,mushroom,car,7,1,3.1102,,butterfly,anim_natural,1,scrambled,3,9,63,1,1,,,,,,
{{Olivia}},2025-08-20_14h32.55.258,GLINT,2024.2.4,MacIntel,63.29113924,,,,,,,,,,,,,,,,,,,,lawnmower,inanim_artificial,9,mushroom,avocado,butterfly,dog,house,cow,train,bread,lawnmower,,0,,,no response,no response,0,scrambled,3,10,64,16,1,,,,,,
{{Olivia}},2025-08-20_14h32.55.258,GLINT,2024.2.4,MacIntel,63.29113924,,,,,,,,,,,,,,,,,,,,snail,anim_natural,9,bread,corn,butterfly,bear,pineapple,train,car,binoculars,snail,9,1,3.6849,,snail,anim_natural,1,scrambled,3,11,65,5,1,,,,,,
{{Olivia}},2025-08-20_14h32.55.258,GLINT,2024.2.4,MacIntel,63.29113924,,,,,,,,,,,,,,,,,,,,apple,inanim_natural,4,cat,car,butterfly,apple,cow,airplane,binoculars,mushroom,pineapple,4,1,2.4005,,apple,inanim_natural,1,scrambled,3,12,66,9,1,,,,,,
{{Olivia}},2025-08-20_14h32.55.258,GLINT,2024.2.4,MacIntel,63.29113924,,,,,,,,,,,,,,,,,,,,mushroom,inanim_natural,2,house,mushroom,lawnmower,binoculars,bread,apple,butterfly,cat,dog,2,1,1.5202,,mushroom,inanim_natural,1,scrambled,3,13,67,7,1,,,,,,
{{Olivia}},2025-08-20_14h32.55.258,GLINT,2024.2.4,MacIntel,63.29113924,,,,,,,,,,,,,,,,,,,,house,inanim_artificial,7,cow,car,binoculars,apple,butterfly,pineapple,house,mushroom,bear,7,1,3.0118,,house,inanim_artificial,1,scrambled,3,14,68,15,1,,,,,,
{{Olivia}},2025-08-20_14h32.55.258,GLINT,2024.2.4,MacIntel,63.29113924,,,,,,,,,,,,,,,,,,,,bread,inanim_natural,2,car,bread,cow,binoculars,avocado,snail,corn,lawnmower,bear,2,1,4.0368,,bread,inanim_natural,1,scrambled,3,15,69,6,1,,,,,,
{{Olivia}},2025-08-20_14h32.55.258,GLINT,2024.2.4,MacIntel,63.29113924,,,,,,,,,,,,,,,,,,,,dog,anim_natural,9,mushroom,binoculars,train,bread,pineapple,snail,car,bear,dog,8,0,2.699,,bear,anim_natural,1,scrambled,3,16,70,4,1,,,,,,
{{Olivia}},2025-08-20_14h32.55.258,GLINT,2024.2.4,MacIntel,63.29113924,,,,,,,,,,,,,,,,,,,,pineapple,inanim_natural,6,airplane,snail,butterfly,corn,car,pineapple,lawnmower,apple,bear,6,1,2.9532,,pineapple,inanim_natural,1,scrambled,3,17,71,8,1,,,,,,
{{Olivia}},2025-08-20_14h32.55.258,GLINT,2024.2.4,MacIntel,63.29113924,,,,,,,,,,,,,,,,,,,,,,,,,,,,,,,,,,,,,,,,,,,,,0,1,1,2,1,scrambled
{{Olivia}},2025-08-20_14h32.55.258,GLINT,2024.2.4,MacIntel,63.29113924,,,,,,,,,,,,,,,,,,,,avocado,inanim_natural,3,bread,cat,avocado,cow,corn,butterfly,train,airplane,binoculars,3,1,4.129,,avocado,inanim_natural,1,line_drawing,0,0,0,11,1,,,,,,
{{Olivia}},2025-08-20_14h32.55.258,GLINT,2024.2.4,MacIntel,63.29113924,,,,,,,,,,,,,,,,,,,,cow,anim_natural,8,mushroom,apple,house,binoculars,train,butterfly,cat,cow,pineapple,8,1,1.9223,,cow,anim_natural,1,line_drawing,0,1,1,3,1,,,,,,
{{Olivia}},2025-08-20_14h32.55.258,GLINT,2024.2.4,MacIntel,63.29113924,,,,,,,,,,,,,,,,,,,,pineapple,inanim_natural,5,train,bread,binoculars,snail,pineapple,bear,corn,airplane,cow,5,1,2.1159,,pineapple,inanim_natural,1,line_drawing,0,2,2,8,1,,,,,,
{{Olivia}},2025-08-20_14h32.55.258,GLINT,2024.2.4,MacIntel,63.29113924,,,,,,,,,,,,,,,,,,,,dog,anim_natural,2,lawnmower,dog,cow,train,pineapple,apple,binoculars,corn,cat,2,1,3.266,,dog,anim_natural,1,line_drawing,0,3,3,4,1,,,,,,
{{Olivia}},2025-08-20_14h32.55.258,GLINT,2024.2.4,MacIntel,63.29113924,,,,,,,,,,,,,,,,,,,,apple,inanim_natural,8,cat,car,airplane,corn,house,mushroom,cow,apple,snail,8,1,3.7312,,apple,inanim_natural,1,line_drawing,0,4,4,9,1,,,,,,
{{Olivia}},2025-08-20_14h32.55.258,GLINT,2024.2.4,MacIntel,63.29113924,,,,,,,,,,,,,,,,,,,,train,inanim_artificial,3,cow,binoculars,train,avocado,bear,pineapple,mushroom,lawnmower,snail,,0,,,no response,no response,0,line_drawing,0,5,5,17,1,,,,,,
{{Olivia}},2025-08-20_14h32.55.258,GLINT,2024.2.4,MacIntel,63.29113924,,,,,,,,,,,,,,,,,,,,mushroom,inanim_natural,2,train,mushroom,bear,dog,bread,snail,pineapple,airplane,car,2,1,1.3888,,mushroom,inanim_natural,1,line_drawing,0,6,6,7,1,,,,,,
{{Olivia}},2025-08-20_14h32.55.258,GLINT,2024.2.4,MacIntel,63.29113924,,,,,,,,,,,,,,,,,,,,house,inanim_artificial,7,avocado,dog,mushroom,pineapple,lawnmower,cat,house,butterfly,airplane,7,1,2.6352,,house,inanim_artificial,1,line_drawing,0,7,7,15,1,,,,,,
{{Olivia}},2025-08-20_14h32.55.258,GLINT,2024.2.4,MacIntel,63.29113924,,,,,,,,,,,,,,,,,,,,butterfly,anim_natural,6,bread,car,mushroom,cat,cow,butterfly,binoculars,train,pineapple,6,1,2.5515,,butterfly,anim_natural,1,line_drawing,0,8,8,1,1,,,,,,
{{Olivia}},2025-08-20_14h32.55.258,GLINT,2024.2.4,MacIntel,63.29113924,,,,,,,,,,,,,,,,,,,,binoculars,inanim_artificial,1,binoculars,butterfly,house,mushroom,corn,bread,snail,cow,car,1,1,2.315,,binoculars,inanim_artificial,1,line_drawing,0,9,9,13,1,,,,,,
{{Olivia}},2025-08-20_14h32.55.258,GLINT,2024.2.4,MacIntel,63.29113924,,,,,,,,,,,,,,,,,,,,snail,anim_natural,6,bear,bread,binoculars,cow,pineapple,snail,house,car,apple,6,1,2.916,,snail,anim_natural,1,line_drawing,0,10,10,5,1,,,,,,
{{Olivia}},2025-08-20_14h32.55.258,GLINT,2024.2.4,MacIntel,63.29113924,,,,,,,,,,,,,,,,,,,,car,inanim_artificial,8,dog,lawnmower,pineapple,airplane,bread,mushroom,cow,car,cat,8,1,2.8657,,car,inanim_artificial,1,line_drawing,0,11,11,14,1,,,,,,
{{Olivia}},2025-08-20_14h32.55.258,GLINT,2024.2.4,MacIntel,63.29113924,,,,,,,,,,,,,,,,,,,,corn,inanim_natural,2,house,corn,car,cow,avocado,binoculars,butterfly,pineapple,cat,2,1,1.7604,,corn,inanim_natural,1,line_drawing,0,12,12,10,1,,,,,,
{{Olivia}},2025-08-20_14h32.55.258,GLINT,2024.2.4,MacIntel,63.29113924,,,,,,,,,,,,,,,,,,,,lawnmower,inanim_artificial,9,corn,butterfly,cow,snail,car,mushroom,pineapple,binoculars,lawnmower,9,1,2.3994,,lawnmower,inanim_artificial,1,line_drawing,0,13,13,16,1,,,,,,
{{Olivia}},2025-08-20_14h32.55.258,GLINT,2024.2.4,MacIntel,63.29113924,,,,,,,,,,,,,,,,,,,,bear,anim_natural,6,train,mushroom,avocado,binoculars,bread,bear,cow,car,dog,6,1,2.4597,,bear,anim_natural,1,line_drawing,0,14,14,0,1,,,,,,
{{Olivia}},2025-08-20_14h32.55.258,GLINT,2024.2.4,MacIntel,63.29113924,,,,,,,,,,,,,,,,,,,,bread,inanim_natural,1,bread,butterfly,corn,lawnmower,cow,car,avocado,bear,train,9,0,2.9484,,train,inanim_artificial,0,line_drawing,0,15,15,6,1,,,,,,
{{Olivia}},2025-08-20_14h32.55.258,GLINT,2024.2.4,MacIntel,63.29113924,,,,,,,,,,,,,,,,,,,,airplane,inanim_artificial,2,bear,airplane,lawnmower,avocado,apple,snail,dog,binoculars,mushroom,2,1,1.7995,,airplane,inanim_artificial,1,line_drawing,0,16,16,12,1,,,,,,
{{Olivia}},2025-08-20_14h32.55.258,GLINT,2024.2.4,MacIntel,63.29113924,,,,,,,,,,,,,,,,,,,,cat,anim_natural,4,avocado,binoculars,corn,cat,lawnmower,cow,butterfly,bread,airplane,4,1,2.5862,,cat,anim_natural,1,line_drawing,0,17,17,2,1,,,,,,
{{Olivia}},2025-08-20_14h32.55.258,GLINT,2024.2.4,MacIntel,63.29113924,,,,,,,,,,,,,,,,,,,,snail,anim_natural,5,train,house,bear,pineapple,snail,cow,apple,bread,lawnmower,5,1,1.3678,,snail,anim_natural,1,line_drawing,1,0,18,5,1,,,,,,
{{Olivia}},2025-08-20_14h32.55.258,GLINT,2024.2.4,MacIntel,63.29113924,,,,,,,,,,,,,,,,,,,,dog,anim_natural,7,lawnmower,cow,apple,bear,avocado,pineapple,dog,train,airplane,,0,,,no response,no response,0,line_drawing,1,1,19,4,1,,,,,,
{{Olivia}},2025-08-20_14h32.55.258,GLINT,2024.2.4,MacIntel,63.29113924,,,,,,,,,,,,,,,,,,,,car,inanim_artificial,7,bear,cow,mushroom,pineapple,avocado,lawnmower,car,binoculars,snail,7,1,3.7046,,car,inanim_artificial,1,line_drawing,1,2,20,14,1,,,,,,
{{Olivia}},2025-08-20_14h32.55.258,GLINT,2024.2.4,MacIntel,63.29113924,,,,,,,,,,,,,,,,,,,,train,inanim_artificial,5,bear,lawnmower,snail,cow,train,avocado,apple,binoculars,corn,5,1,2.5842,,train,inanim_artificial,1,line_drawing,1,3,21,17,1,,,,,,
{{Olivia}},2025-08-20_14h32.55.258,GLINT,2024.2.4,MacIntel,63.29113924,,,,,,,,,,,,,,,,,,,,lawnmower,inanim_artificial,1,lawnmower,bread,snail,train,corn,bear,dog,pineapple,car,1,1,1.639,,lawnmower,inanim_artificial,1,line_drawing,1,4,22,16,1,,,,,,
{{Olivia}},2025-08-20_14h32.55.258,GLINT,2024.2.4,MacIntel,63.29113924,,,,,,,,,,,,,,,,,,,,cow,anim_natural,9,corn,mushroom,airplane,car,butterfly,avocado,snail,house,cow,9,1,1.6677,,cow,anim_natural,1,line_drawing,1,5,23,3,1,,,,,,
{{Olivia}},2025-08-20_14h32.55.258,GLINT,2024.2.4,MacIntel,63.29113924,,,,,,,,,,,,,,,,,,,,apple,inanim_natural,2,train,apple,butterfly,avocado,binoculars,cow,lawnmower,pineapple,bear,2,1,2.6178,,apple,inanim_natural,1,line_drawing,1,6,24,9,1,,,,,,
{{Olivia}},2025-08-20_14h32.55.258,GLINT,2024.2.4,MacIntel,63.29113924,,,,,,,,,,,,,,,,,,,,airplane,inanim_artificial,7,binoculars,bear,avocado,cow,house,bread,airplane,snail,mushroom,7,1,2.7998,,airplane,inanim_artificial,1,line_drawing,1,7,25,12,1,,,,,,
{{Olivia}},2025-08-20_14h32.55.258,GLINT,2024.2.4,MacIntel,63.29113924,,,,,,,,,,,,,,,,,,,,pineapple,inanim_natural,4,mushroom,dog,snail,pineapple,train,house,bread,airplane,cat,4,1,2.5594,,pineapple,inanim_natural,1,line_drawing,1,8,26,8,1,,,,,,
{{Olivia}},2025-08-20_14h32.55.258,GLINT,2024.2.4,MacIntel,63.29113924,,,,,,,,,,,,,,,,,,,,mushroom,inanim_natural,3,cow,train,mushroom,pineapple,car,airplane,avocado,bear,dog,6,0,3.7697,,airplane,inanim_artificial,0,line_drawing,1,9,27,7,1,,,,,,
{{Olivia}},2025-08-20_14h32.55.258,GLINT,2024.2.4,MacIntel,63.29113924,,,,,,,,,,,,,,,,,,,,bear,anim_natural,4,car,house,apple,bear,airplane,corn,butterfly,cat,pineapple,4,1,2.9535,,bear,anim_natural,1,line_drawing,1,10,28,0,1,,,,,,
{{Olivia}},2025-08-20_14h32.55.258,GLINT,2024.2.4,MacIntel,63.29113924,,,,,,,,,,,,,,,,,,,,bread,inanim_natural,3,butterfly,airplane,bread,bear,apple,dog,corn,car,house,3,1,2.6685,,bread,inanim_natural,1,line_drawing,1,11,29,6,1,,,,,,
{{Olivia}},2025-08-20_14h32.55.258,GLINT,2024.2.4,MacIntel,63.29113924,,,,,,,,,,,,,,,,,,,,avocado,inanim_natural,1,avocado,airplane,apple,cow,bear,pineapple,lawnmower,snail,house,1,1,3.385,,avocado,inanim_natural,1,line_drawing,1,12,30,11,1,,,,,,
{{Olivia}},2025-08-20_14h32.55.258,GLINT,2024.2.4,MacIntel,63.29113924,,,,,,,,,,,,,,,,,,,,binoculars,inanim_artificial,3,bread,cow,binoculars,butterfly,apple,car,bear,corn,house,3,1,2.1013,,binoculars,inanim_artificial,1,line_drawing,1,13,31,13,1,,,,,,
{{Olivia}},2025-08-20_14h32.55.258,GLINT,2024.2.4,MacIntel,63.29113924,,,,,,,,,,,,,,,,,,,,butterfly,anim_natural,7,train,binoculars,pineapple,corn,mushroom,snail,butterfly,cow,lawnmower,7,1,3.8167,,butterfly,anim_natural,1,line_drawing,1,14,32,1,1,,,,,,
{{Olivia}},2025-08-20_14h32.55.258,GLINT,2024.2.4,MacIntel,63.29113924,,,,,,,,,,,,,,,,,,,,cat,anim_natural,7,bread,bear,airplane,train,dog,mushroom,cat,binoculars,corn,7,1,2.1659,,cat,anim_natural,1,line_drawing,1,15,33,2,1,,,,,,
{{Olivia}},2025-08-20_14h32.55.258,GLINT,2024.2.4,MacIntel,63.29113924,,,,,,,,,,,,,,,,,,,,house,inanim_artificial,1,house,corn,mushroom,car,cat,avocado,cow,lawnmower,dog,1,1,2.3542,,house,inanim_artificial,1,line_drawing,1,16,34,15,1,,,,,,
{{Olivia}},2025-08-20_14h32.55.258,GLINT,2024.2.4,MacIntel,63.29113924,,,,,,,,,,,,,,,,,,,,corn,inanim_natural,4,cow,apple,binoculars,corn,avocado,dog,house,bear,lawnmower,4,1,3.4208,,corn,inanim_natural,1,line_drawing,1,17,35,10,1,,,,,,
{{Olivia}},2025-08-20_14h32.55.258,GLINT,2024.2.4,MacIntel,63.29113924,,,,,,,,,,,,,,,,,,,,pineapple,inanim_natural,9,cow,house,train,cat,car,avocado,bear,bread,pineapple,,0,,,no response,no response,0,line_drawing,2,0,36,8,1,,,,,,
{{Olivia}},2025-08-20_14h32.55.258,GLINT,2024.2.4,MacIntel,63.29113924,,,,,,,,,,,,,,,,,,,,mushroom,inanim_natural,5,dog,binoculars,snail,apple,mushroom,bread,butterfly,lawnmower,house,,0,,,no response,no response,0,line_drawing,2,1,37,7,1,,,,,,
{{Olivia}},2025-08-20_14h32.55.258,GLINT,2024.2.4,MacIntel,63.29113924,,,,,,,,,,,,,,,,,,,,butterfly,anim_natural,7,avocado,bear,house,mushroom,lawnmower,airplane,butterfly,corn,snail,7,1,3.4429,,butterfly,anim_natural,1,line_drawing,2,2,38,1,1,,,,,,
{{Olivia}},2025-08-20_14h32.55.258,GLINT,2024.2.4,MacIntel,63.29113924,,,,,,,,,,,,,,,,,,,,binoculars,inanim_artificial,3,corn,dog,binoculars,pineapple,cow,house,snail,lawnmower,avocado,3,1,2.2501,,binoculars,inanim_artificial,1,line_drawing,2,3,39,13,1,,,,,,
{{Olivia}},2025-08-20_14h32.55.258,GLINT,2024.2.4,MacIntel,63.29113924,,,,,,,,,,,,,,,,,,,,car,inanim_artificial,7,lawnmower,bear,apple,avocado,corn,airplane,car,snail,cow,7,1,2.9492,,car,inanim_artificial,1,line_drawing,2,4,40,14,1,,,,,,
{{Olivia}},2025-08-20_14h32.55.258,GLINT,2024.2.4,MacIntel,63.29113924,,,,,,,,,,,,,,,,,,,,avocado,inanim_natural,2,cat,avocado,train,dog,snail,lawnmower,apple,car,bread,2,1,1.449,,avocado,inanim_natural,1,line_drawing,2,5,41,11,1,,,,,,
{{Olivia}},2025-08-20_14h32.55.258,GLINT,2024.2.4,MacIntel,63.29113924,,,,,,,,,,,,,,,,,,,,bear,anim_natural,8,pineapple,corn,apple,airplane,cat,butterfly,house,bear,binoculars,8,1,3.2108,,bear,anim_natural,1,line_drawing,2,6,42,0,1,,,,,,
{{Olivia}},2025-08-20_14h32.55.258,GLINT,2024.2.4,MacIntel,63.29113924,,,,,,,,,,,,,,,,,,,,bread,inanim_natural,3,airplane,cat,bread,cow,house,avocado,bear,car,corn,3,1,2.1007,,bread,inanim_natural,1,line_drawing,2,7,43,6,1,,,,,,
{{Olivia}},2025-08-20_14h32.55.258,GLINT,2024.2.4,MacIntel,63.29113924,,,,,,,,,,,,,,,,,,,,snail,anim_natural,5,airplane,butterfly,cat,bread,snail,mushroom,car,pineapple,house,5,1,1.5475,,snail,anim_natural,1,line_drawing,2,8,44,5,1,,,,,,
{{Olivia}},2025-08-20_14h32.55.258,GLINT,2024.2.4,MacIntel,63.29113924,,,,,,,,,,,,,,,,,,,,cow,anim_natural,8,lawnmower,train,dog,pineapple,bread,airplane,corn,cow,snail,,0,,,no response,no response,0,line_drawing,2,9,45,3,1,,,,,,
{{Olivia}},2025-08-20_14h32.55.258,GLINT,2024.2.4,MacIntel,63.29113924,,,,,,,,,,,,,,,,,,,,apple,inanim_natural,4,cat,car,binoculars,apple,butterfly,snail,pineapple,corn,airplane,4,1,2.65,,apple,inanim_natural,1,line_drawing,2,10,46,9,1,,,,,,
{{Olivia}},2025-08-20_14h32.55.258,GLINT,2024.2.4,MacIntel,63.29113924,,,,,,,,,,,,,,,,,,,,lawnmower,inanim_artificial,6,dog,bear,mushroom,binoculars,snail,lawnmower,corn,pineapple,car,6,1,1.8329,,lawnmower,inanim_artificial,1,line_drawing,2,11,47,16,1,,,,,,
{{Olivia}},2025-08-20_14h32.55.258,GLINT,2024.2.4,MacIntel,63.29113924,,,,,,,,,,,,,,,,,,,,corn,inanim_natural,4,bear,bread,apple,corn,lawnmower,dog,house,car,cat,4,1,2.2416,,corn,inanim_natural,1,line_drawing,2,12,48,10,1,,,,,,
{{Olivia}},2025-08-20_14h32.55.258,GLINT,2024.2.4,MacIntel,63.29113924,,,,,,,,,,,,,,,,,,,,airplane,inanim_artificial,1,airplane,car,apple,binoculars,cow,snail,pineapple,corn,dog,1,1,2.7839,,airplane,inanim_artificial,1,line_drawing,2,13,49,12,1,,,,,,
{{Olivia}},2025-08-20_14h32.55.258,GLINT,2024.2.4,MacIntel,63.29113924,,,,,,,,,,,,,,,,,,,,dog,anim_natural,9,pineapple,avocado,train,butterfly,binoculars,corn,car,bear,dog,9,1,4.5023,,dog,anim_natural,1,line_drawing,2,14,50,4,1,,,,,,
{{Olivia}},2025-08-20_14h32.55.258,GLINT,2024.2.4,MacIntel,63.29113924,,,,,,,,,,,,,,,,,,,,cat,anim_natural,9,lawnmower,apple,train,mushroom,dog,corn,cow,house,cat,9,1,3.0565,,cat,anim_natural,1,line_drawing,2,15,51,2,1,,,,,,
{{Olivia}},2025-08-20_14h32.55.258,GLINT,2024.2.4,MacIntel,63.29113924,,,,,,,,,,,,,,,,,,,,house,inanim_artificial,9,car,pineapple,cow,apple,bear,cat,train,bread,house,9,1,3.8492,,house,inanim_artificial,1,line_drawing,2,16,52,15,1,,,,,,
{{Olivia}},2025-08-20_14h32.55.258,GLINT,2024.2.4,MacIntel,63.29113924,,,,,,,,,,,,,,,,,,,,train,inanim_artificial,1,train,cat,binoculars,corn,butterfly,apple,car,pineapple,cow,1,1,4.5486,,train,inanim_artificial,1,line_drawing,2,17,53,17,1,,,,,,
{{Olivia}},2025-08-20_14h32.55.258,GLINT,2024.2.4,MacIntel,63.29113924,,,,,,,,,,,,,,,,,,,,bread,inanim_natural,7,pineapple,cat,airplane,dog,car,snail,bread,avocado,binoculars,7,1,2.4512,,bread,inanim_natural,1,line_drawing,3,0,54,6,1,,,,,,
{{Olivia}},2025-08-20_14h32.55.258,GLINT,2024.2.4,MacIntel,63.29113924,,,,,,,,,,,,,,,,,,,,snail,anim_natural,3,avocado,airplane,snail,corn,train,cat,butterfly,car,pineapple,3,1,3.0659,,snail,anim_natural,1,line_drawing,3,1,55,5,1,,,,,,
{{Olivia}},2025-08-20_14h32.55.258,GLINT,2024.2.4,MacIntel,63.29113924,,,,,,,,,,,,,,,,,,,,corn,inanim_natural,3,bread,apple,corn,airplane,cow,bear,lawnmower,snail,binoculars,3,1,2.3003,,corn,inanim_natural,1,line_drawing,3,2,56,10,1,,,,,,
{{Olivia}},2025-08-20_14h32.55.258,GLINT,2024.2.4,MacIntel,63.29113924,,,,,,,,,,,,,,,,,,,,cow,anim_natural,1,cow,bear,mushroom,pineapple,house,car,apple,lawnmower,cat,1,1,3.5933,,cow,anim_natural,1,line_drawing,3,3,57,3,1,,,,,,
{{Olivia}},2025-08-20_14h32.55.258,GLINT,2024.2.4,MacIntel,63.29113924,,,,,,,,,,,,,,,,,,,,binoculars,inanim_artificial,6,dog,airplane,cat,apple,butterfly,binoculars,car,avocado,mushroom,6,1,2.5663,,binoculars,inanim_artificial,1,line_drawing,3,4,58,13,1,,,,,,
{{Olivia}},2025-08-20_14h32.55.258,GLINT,2024.2.4,MacIntel,63.29113924,,,,,,,,,,,,,,,,,,,,airplane,inanim_artificial,9,cow,butterfly,mushroom,avocado,house,bread,snail,binoculars,airplane,9,1,2.3519,,airplane,inanim_artificial,1,line_drawing,3,5,59,12,1,,,,,,
{{Olivia}},2025-08-20_14h32.55.258,GLINT,2024.2.4,MacIntel,63.29113924,,,,,,,,,,,,,,,,,,,,avocado,inanim_natural,2,pineapple,avocado,dog,corn,bear,airplane,house,butterfly,binoculars,2,1,1.5663,,avocado,inanim_natural,1,line_drawing,3,6,60,11,1,,,,,,
{{Olivia}},2025-08-20_14h32.55.258,GLINT,2024.2.4,MacIntel,63.29113924,,,,,,,,,,,,,,,,,,,,house,inanim_artificial,4,bread,pineapple,lawnmower,house,apple,airplane,snail,cat,dog,4,1,2.0174,,house,inanim_artificial,1,line_drawing,3,7,61,15,1,,,,,,
{{Olivia}},2025-08-20_14h32.55.258,GLINT,2024.2.4,MacIntel,63.29113924,,,,,,,,,,,,,,,,,,,,cat,anim_natural,5,car,corn,bear,avocado,cat,dog,house,mushroom,train,5,1,1.2837,,cat,anim_natural,1,line_drawing,3,8,62,2,1,,,,,,
{{Olivia}},2025-08-20_14h32.55.258,GLINT,2024.2.4,MacIntel,63.29113924,,,,,,,,,,,,,,,,,,,,lawnmower,inanim_artificial,1,lawnmower,snail,airplane,avocado,bread,corn,car,cow,butterfly,1,1,2.2063,,lawnmower,inanim_artificial,1,line_drawing,3,9,63,16,1,,,,,,
{{Olivia}},2025-08-20_14h32.55.258,GLINT,2024.2.4,MacIntel,63.29113924,,,,,,,,,,,,,,,,,,,,mushroom,inanim_natural,7,butterfly,binoculars,corn,snail,house,bear,mushroom,lawnmower,bread,1,0,4.2695,,butterfly,anim_natural,0,line_drawing,3,10,64,7,1,,,,,,
{{Olivia}},2025-08-20_14h32.55.258,GLINT,2024.2.4,MacIntel,63.29113924,,,,,,,,,,,,,,,,,,,,car,inanim_artificial,6,house,apple,airplane,bear,bread,car,dog,cow,avocado,6,1,3.4658,,car,inanim_artificial,1,line_drawing,3,11,65,14,1,,,,,,
{{Olivia}},2025-08-20_14h32.55.258,GLINT,2024.2.4,MacIntel,63.29113924,,,,,,,,,,,,,,,,,,,,train,inanim_artificial,5,lawnmower,apple,house,butterfly,train,snail,cow,mushroom,avocado,5,1,2.2363,,train,inanim_artificial,1,line_drawing,3,12,66,17,1,,,,,,
{{Olivia}},2025-08-20_14h32.55.258,GLINT,2024.2.4,MacIntel,63.29113924,,,,,,,,,,,,,,,,,,,,apple,inanim_natural,7,train,lawnmower,pineapple,cow,cat,dog,apple,car,bread,7,1,3.0822,,apple,inanim_natural,1,line_drawing,3,13,67,9,1,,,,,,
{{Olivia}},2025-08-20_14h32.55.258,GLINT,2024.2.4,MacIntel,63.29113924,,,,,,,,,,,,,,,,,,,,bear,anim_natural,2,lawnmower,bear,cat,dog,corn,apple,bread,train,binoculars,6,0,2.9781,,apple,inanim_natural,0,line_drawing,3,14,68,0,1,,,,,,
{{Olivia}},2025-08-20_14h32.55.258,GLINT,2024.2.4,MacIntel,63.29113924,,,,,,,,,,,,,,,,,,,,dog,anim_natural,7,avocado,corn,train,airplane,house,bear,dog,mushroom,cat,7,1,4.5004,,dog,anim_natural,1,line_drawing,3,15,69,4,1,,,,,,
{{Olivia}},2025-08-20_14h32.55.258,GLINT,2024.2.4,MacIntel,63.29113924,,,,,,,,,,,,,,,,,,,,pineapple,inanim_natural,3,airplane,mushroom,pineapple,corn,lawnmower,cow,butterfly,cat,binoculars,3,1,2.3839,,pineapple,inanim_natural,1,line_drawing,3,16,70,8,1,,,,,,
{{Olivia}},2025-08-20_14h32.55.258,GLINT,2024.2.4,MacIntel,63.29113924,,,,,,,,,,,,,,,,,,,,butterfly,anim_natural,5,binoculars,bread,dog,house,butterfly,apple,pineapple,lawnmower,snail,5,1,1.6172,,butterfly,anim_natural,1,line_drawing,3,17,71,1,1,,,,,,
{{Olivia}},2025-08-20_14h32.55.258,GLINT,2024.2.4,MacIntel,63.29113924,,,,,,,,,,,,,,,,,,,,,,,,,,,,,,,,,,,,,,,,,,,,,0,2,2,1,1,line_drawing
