participant,date,expName,psychopyVersion,OS,frameRate,CorrectResponse,prac_prompt_1,prac_prompt_2,prac_prompt_3,prac_prompt_4,prac_prompt_5,prac_prompt_6,prac_prompt_7,prac_prompt_8,prac_prompt_9,prac_key_resp.keys,prac_key_resp.corr,prac_key_resp.rt,prac_key_resp.duration,prac_loop.thisRepN,prac_loop.thisTrialN,prac_loop.thisN,prac_loop.thisIndex,prac_loop.ran,object_class,object_category,corr_ans,prompt_1,prompt_2,prompt_3,prompt_4,prompt_5,prompt_6,prompt_7,prompt_8,prompt_9,key_resp.keys,key_resp.corr,key_resp.rt,key_resp.duration,response_label,response_animacy,corr_animacy,img_condition,test_loop.thisRepN,test_loop.thisTrialN,test_loop.thisN,test_loop.thisIndex,test_loop.ran,randomize_blocks.thisRepN,randomize_blocks.thisTrialN,randomize_blocks.thisN,randomize_blocks.thisIndex,randomize_blocks.ran,block_condition
{{Xinyi}},2025-08-20_14h20.02.477,GLINT,2024.2.4,MacIntel,64.1025641,,,,,,,,,,,,,,,,,,,,,,,,,,,,,,,,,,,,,,,,,,,,,,,,,,
{{Xinyi}},2025-08-20_14h20.02.477,GLINT,2024.2.4,MacIntel,64.1025641,,,,,,,,,,,,,,,,,,,,,,,,,,,,,,,,,,,,,,,,,,,,,,,,,,
{{Xinyi}},2025-08-20_14h20.02.477,GLINT,2024.2.4,MacIntel,64.1025641,,,,,,,,,,,,,,,,,,,,,,,,,,,,,,,,,,,,,,,,,,,,,,,,,,
{{Xinyi}},2025-08-20_14h20.02.477,GLINT,2024.2.4,MacIntel,64.1025641,9,truck,hand,tree,flower,bicycle,dog,chair,leaf,duck,9,1,3.7496,,0,0,0,1,1,duck,anim_natural,,,,,,,,,,,,,,,,,,,,,,,,,,,,,
{{Xinyi}},2025-08-20_14h20.02.477,GLINT,2024.2.4,MacIntel,64.1025641,5,hand,chair,duck,leaf,flower,truck,bicycle,dog,tree,4,0,6.412,,0,1,1,3,1,flower,inanim_natural,,,,,,,,,,,,,,,,,,,,,,,,,,,,,
{{Xinyi}},2025-08-20_14h20.02.477,GLINT,2024.2.4,MacIntel,64.1025641,9,flower,leaf,dog,truck,duck,chair,bicycle,tree,hand,9,1,7.44,,0,2,2,0,1,hand,anim_natural,,,,,,,,,,,,,,,,,,,,,,,,,,,,,
{{Xinyi}},2025-08-20_14h20.02.477,GLINT,2024.2.4,MacIntel,64.1025641,1,dog,tree,flower,bicycle,truck,leaf,duck,hand,chair,1,1,1.7487,,0,3,3,2,1,dog,anim_natural,,,,,,,,,,,,,,,,,,,,,,,,,,,,,
{{Xinyi}},2025-08-20_14h20.02.477,GLINT,2024.2.4,MacIntel,64.1025641,1,tree,hand,leaf,duck,truck,bicycle,dog,chair,flower,1,1,1.8722,,0,4,4,4,1,tree,inanim_natural,,,,,,,,,,,,,,,,,,,,,,,,,,,,,
{{Xinyi}},2025-08-20_14h20.02.477,GLINT,2024.2.4,MacIntel,64.1025641,,,,,,,,,,,,,,,,,,,,cow,anim_natural,9,apple,avocado,binoculars,bread,house,butterfly,bear,lawnmower,cow,9,1,3.0953,,cow,anim_natural,1,natural,0,0,0,3,1,,,,,,
{{Xinyi}},2025-08-20_14h20.02.477,GLINT,2024.2.4,MacIntel,64.1025641,,,,,,,,,,,,,,,,,,,,lawnmower,inanim_artificial,4,avocado,pineapple,cow,lawnmower,car,airplane,butterfly,mushroom,snail,4,1,4.5188,,lawnmower,inanim_artificial,1,natural,0,1,1,16,1,,,,,,
{{Xinyi}},2025-08-20_14h20.02.477,GLINT,2024.2.4,MacIntel,64.1025641,,,,,,,,,,,,,,,,,,,,bear,anim_natural,1,bear,dog,mushroom,house,airplane,butterfly,bread,avocado,car,1,1,1.4929,,bear,anim_natural,1,natural,0,2,2,0,1,,,,,,
{{Xinyi}},2025-08-20_14h20.02.477,GLINT,2024.2.4,MacIntel,64.1025641,,,,,,,,,,,,,,,,,,,,butterfly,anim_natural,6,corn,airplane,bread,binoculars,pineapple,butterfly,lawnmower,bear,snail,6,1,2.116,,butterfly,anim_natural,1,natural,0,3,3,1,1,,,,,,
{{Xinyi}},2025-08-20_14h20.02.477,GLINT,2024.2.4,MacIntel,64.1025641,,,,,,,,,,,,,,,,,,,,mushroom,inanim_natural,7,pineapple,lawnmower,car,bear,dog,airplane,mushroom,cow,corn,7,1,4.1596,,mushroom,inanim_natural,1,natural,0,4,4,7,1,,,,,,
{{Xinyi}},2025-08-20_14h20.02.477,GLINT,2024.2.4,MacIntel,64.1025641,,,,,,,,,,,,,,,,,,,,house,inanim_artificial,4,lawnmower,mushroom,avocado,house,cat,cow,snail,train,apple,4,1,2.5107,,house,inanim_artificial,1,natural,0,5,5,15,1,,,,,,
{{Xinyi}},2025-08-20_14h20.02.477,GLINT,2024.2.4,MacIntel,64.1025641,,,,,,,,,,,,,,,,,,,,airplane,inanim_artificial,1,airplane,snail,pineapple,bear,corn,house,cat,avocado,train,1,1,2.0149,,airplane,inanim_artificial,1,natural,0,6,6,12,1,,,,,,
{{Xinyi}},2025-08-20_14h20.02.477,GLINT,2024.2.4,MacIntel,64.1025641,,,,,,,,,,,,,,,,,,,,binoculars,inanim_artificial,1,binoculars,house,cat,avocado,airplane,cow,bread,pineapple,butterfly,,0,,,no response,no response,0,natural,0,7,7,13,1,,,,,,
{{Xinyi}},2025-08-20_14h20.02.477,GLINT,2024.2.4,MacIntel,64.1025641,,,,,,,,,,,,,,,,,,,,cat,anim_natural,1,cat,house,dog,avocado,airplane,mushroom,apple,train,snail,1,1,1.2521,,cat,anim_natural,1,natural,0,8,8,2,1,,,,,,
{{Xinyi}},2025-08-20_14h20.02.477,GLINT,2024.2.4,MacIntel,64.1025641,,,,,,,,,,,,,,,,,,,,apple,inanim_natural,9,avocado,car,butterfly,house,cat,dog,airplane,corn,apple,9,1,3.0652,,apple,inanim_natural,1,natural,0,9,9,9,1,,,,,,
{{Xinyi}},2025-08-20_14h20.02.477,GLINT,2024.2.4,MacIntel,64.1025641,,,,,,,,,,,,,,,,,,,,car,inanim_artificial,5,train,dog,bread,bear,car,mushroom,binoculars,cow,pineapple,5,1,1.6072,,car,inanim_artificial,1,natural,0,10,10,14,1,,,,,,
{{Xinyi}},2025-08-20_14h20.02.477,GLINT,2024.2.4,MacIntel,64.1025641,,,,,,,,,,,,,,,,,,,,dog,anim_natural,7,bread,bear,airplane,snail,corn,binoculars,dog,car,apple,7,1,2.5355,,dog,anim_natural,1,natural,0,11,11,4,1,,,,,,
{{Xinyi}},2025-08-20_14h20.02.477,GLINT,2024.2.4,MacIntel,64.1025641,,,,,,,,,,,,,,,,,,,,bread,inanim_natural,6,butterfly,mushroom,bear,house,car,bread,cat,pineapple,binoculars,6,1,1.8486,,bread,inanim_natural,1,natural,0,12,12,6,1,,,,,,
{{Xinyi}},2025-08-20_14h20.02.477,GLINT,2024.2.4,MacIntel,64.1025641,,,,,,,,,,,,,,,,,,,,avocado,inanim_natural,1,avocado,butterfly,house,bear,cow,car,airplane,bread,pineapple,1,1,1.0961,,avocado,inanim_natural,1,natural,0,13,13,11,1,,,,,,
{{Xinyi}},2025-08-20_14h20.02.477,GLINT,2024.2.4,MacIntel,64.1025641,,,,,,,,,,,,,,,,,,,,corn,inanim_natural,2,lawnmower,corn,train,bear,dog,bread,snail,binoculars,pineapple,2,1,1.1658,,corn,inanim_natural,1,natural,0,14,14,10,1,,,,,,
{{Xinyi}},2025-08-20_14h20.02.477,GLINT,2024.2.4,MacIntel,64.1025641,,,,,,,,,,,,,,,,,,,,pineapple,inanim_natural,8,butterfly,apple,dog,snail,binoculars,airplane,car,pineapple,bread,8,1,2.6823,,pineapple,inanim_natural,1,natural,0,15,15,8,1,,,,,,
{{Xinyi}},2025-08-20_14h20.02.477,GLINT,2024.2.4,MacIntel,64.1025641,,,,,,,,,,,,,,,,,,,,train,inanim_artificial,4,binoculars,bread,house,train,bear,dog,avocado,apple,butterfly,4,1,2.8087,,train,inanim_artificial,1,natural,0,16,16,17,1,,,,,,
{{Xinyi}},2025-08-20_14h20.02.477,GLINT,2024.2.4,MacIntel,64.1025641,,,,,,,,,,,,,,,,,,,,snail,anim_natural,8,airplane,pineapple,apple,corn,butterfly,binoculars,cow,snail,car,8,1,2.9304,,snail,anim_natural,1,natural,0,17,17,5,1,,,,,,
{{Xinyi}},2025-08-20_14h20.02.477,GLINT,2024.2.4,MacIntel,64.1025641,,,,,,,,,,,,,,,,,,,,pineapple,inanim_natural,7,mushroom,cow,train,snail,lawnmower,corn,pineapple,cat,binoculars,7,1,2.7901,,pineapple,inanim_natural,1,natural,1,0,18,8,1,,,,,,
{{Xinyi}},2025-08-20_14h20.02.477,GLINT,2024.2.4,MacIntel,64.1025641,,,,,,,,,,,,,,,,,,,,corn,inanim_natural,5,house,lawnmower,cat,pineapple,corn,avocado,butterfly,car,bear,5,1,2.0352,,corn,inanim_natural,1,natural,1,1,19,10,1,,,,,,
{{Xinyi}},2025-08-20_14h20.02.477,GLINT,2024.2.4,MacIntel,64.1025641,,,,,,,,,,,,,,,,,,,,train,inanim_artificial,7,butterfly,avocado,snail,car,cow,lawnmower,train,pineapple,bread,7,1,2.7681,,train,inanim_artificial,1,natural,1,2,20,17,1,,,,,,
{{Xinyi}},2025-08-20_14h20.02.477,GLINT,2024.2.4,MacIntel,64.1025641,,,,,,,,,,,,,,,,,,,,butterfly,anim_natural,4,corn,cow,bear,butterfly,car,train,avocado,apple,house,4,1,1.6567,,butterfly,anim_natural,1,natural,1,3,21,1,1,,,,,,
{{Xinyi}},2025-08-20_14h20.02.477,GLINT,2024.2.4,MacIntel,64.1025641,,,,,,,,,,,,,,,,,,,,cow,anim_natural,3,snail,pineapple,cow,corn,apple,binoculars,car,train,butterfly,3,1,3.6414,,cow,anim_natural,1,natural,1,4,22,3,1,,,,,,
{{Xinyi}},2025-08-20_14h20.02.477,GLINT,2024.2.4,MacIntel,64.1025641,,,,,,,,,,,,,,,,,,,,dog,anim_natural,6,bear,apple,lawnmower,train,corn,dog,snail,mushroom,car,6,1,1.5922,,dog,anim_natural,1,natural,1,5,23,4,1,,,,,,
{{Xinyi}},2025-08-20_14h20.02.477,GLINT,2024.2.4,MacIntel,64.1025641,,,,,,,,,,,,,,,,,,,,binoculars,inanim_artificial,4,airplane,apple,butterfly,binoculars,pineapple,lawnmower,corn,snail,bear,4,1,4.9529,,binoculars,inanim_artificial,1,natural,1,6,24,13,1,,,,,,
{{Xinyi}},2025-08-20_14h20.02.477,GLINT,2024.2.4,MacIntel,64.1025641,,,,,,,,,,,,,,,,,,,,lawnmower,inanim_artificial,4,binoculars,cat,snail,lawnmower,pineapple,apple,mushroom,bear,car,4,1,1.7148,,lawnmower,inanim_artificial,1,natural,1,7,25,16,1,,,,,,
{{Xinyi}},2025-08-20_14h20.02.477,GLINT,2024.2.4,MacIntel,64.1025641,,,,,,,,,,,,,,,,,,,,bear,anim_natural,8,airplane,avocado,bread,butterfly,apple,binoculars,cow,bear,car,8,1,3.0696,,bear,anim_natural,1,natural,1,8,26,0,1,,,,,,
{{Xinyi}},2025-08-20_14h20.02.477,GLINT,2024.2.4,MacIntel,64.1025641,,,,,,,,,,,,,,,,,,,,house,inanim_artificial,8,pineapple,corn,apple,airplane,bear,lawnmower,dog,house,cow,8,1,3.1413,,house,inanim_artificial,1,natural,1,9,27,15,1,,,,,,
{{Xinyi}},2025-08-20_14h20.02.477,GLINT,2024.2.4,MacIntel,64.1025641,,,,,,,,,,,,,,,,,,,,mushroom,inanim_natural,9,bear,airplane,train,cat,apple,binoculars,dog,bread,mushroom,9,1,2.1777,,mushroom,inanim_natural,1,natural,1,10,28,7,1,,,,,,
{{Xinyi}},2025-08-20_14h20.02.477,GLINT,2024.2.4,MacIntel,64.1025641,,,,,,,,,,,,,,,,,,,,avocado,inanim_natural,6,bear,binoculars,pineapple,house,cat,avocado,mushroom,lawnmower,butterfly,6,1,3.5589,,avocado,inanim_natural,1,natural,1,11,29,11,1,,,,,,
{{Xinyi}},2025-08-20_14h20.02.477,GLINT,2024.2.4,MacIntel,64.1025641,,,,,,,,,,,,,,,,,,,,cat,anim_natural,6,cow,binoculars,house,apple,lawnmower,cat,bread,avocado,bear,6,1,1.6308,,cat,anim_natural,1,natural,1,12,30,2,1,,,,,,
{{Xinyi}},2025-08-20_14h20.02.477,GLINT,2024.2.4,MacIntel,64.1025641,,,,,,,,,,,,,,,,,,,,bread,inanim_natural,9,avocado,cow,lawnmower,house,binoculars,dog,pineapple,butterfly,bread,9,1,3.0663,,bread,inanim_natural,1,natural,1,13,31,6,1,,,,,,
{{Xinyi}},2025-08-20_14h20.02.477,GLINT,2024.2.4,MacIntel,64.1025641,,,,,,,,,,,,,,,,,,,,apple,inanim_natural,7,bear,corn,pineapple,cat,car,lawnmower,apple,house,dog,7,1,1.8679,,apple,inanim_natural,1,natural,1,14,32,9,1,,,,,,
{{Xinyi}},2025-08-20_14h20.02.477,GLINT,2024.2.4,MacIntel,64.1025641,,,,,,,,,,,,,,,,,,,,airplane,inanim_artificial,4,cow,house,bread,airplane,dog,corn,snail,lawnmower,mushroom,4,1,2.1645,,airplane,inanim_artificial,1,natural,1,15,33,12,1,,,,,,
{{Xinyi}},2025-08-20_14h20.02.477,GLINT,2024.2.4,MacIntel,64.1025641,,,,,,,,,,,,,,,,,,,,car,inanim_artificial,9,cow,corn,apple,butterfly,lawnmower,bread,train,cat,car,9,1,2.9849,,car,inanim_artificial,1,natural,1,16,34,14,1,,,,,,
{{Xinyi}},2025-08-20_14h20.02.477,GLINT,2024.2.4,MacIntel,64.1025641,,,,,,,,,,,,,,,,,,,,snail,anim_natural,8,house,mushroom,butterfly,binoculars,pineapple,bear,apple,snail,airplane,9,0,3.6844,,airplane,inanim_artificial,0,natural,1,17,35,5,1,,,,,,
{{Xinyi}},2025-08-20_14h20.02.477,GLINT,2024.2.4,MacIntel,64.1025641,,,,,,,,,,,,,,,,,,,,cow,anim_natural,6,house,dog,bear,binoculars,corn,cow,bread,lawnmower,avocado,6,1,2.0574,,cow,anim_natural,1,natural,2,0,36,3,1,,,,,,
{{Xinyi}},2025-08-20_14h20.02.477,GLINT,2024.2.4,MacIntel,64.1025641,,,,,,,,,,,,,,,,,,,,train,inanim_artificial,6,bread,airplane,butterfly,snail,pineapple,train,corn,cat,lawnmower,6,1,1.6819,,train,inanim_artificial,1,natural,2,1,37,17,1,,,,,,
{{Xinyi}},2025-08-20_14h20.02.477,GLINT,2024.2.4,MacIntel,64.1025641,,,,,,,,,,,,,,,,,,,,pineapple,inanim_natural,1,pineapple,apple,binoculars,cat,lawnmower,bear,car,avocado,snail,1,1,2.3826,,pineapple,inanim_natural,1,natural,2,2,38,8,1,,,,,,
{{Xinyi}},2025-08-20_14h20.02.477,GLINT,2024.2.4,MacIntel,64.1025641,,,,,,,,,,,,,,,,,,,,dog,anim_natural,9,apple,train,bear,house,butterfly,bread,car,mushroom,dog,9,1,4.1188,,dog,anim_natural,1,natural,2,3,39,4,1,,,,,,
{{Xinyi}},2025-08-20_14h20.02.477,GLINT,2024.2.4,MacIntel,64.1025641,,,,,,,,,,,,,,,,,,,,avocado,inanim_natural,6,car,mushroom,cat,train,dog,avocado,bread,lawnmower,butterfly,6,1,4.8953,,avocado,inanim_natural,1,natural,2,4,40,11,1,,,,,,
{{Xinyi}},2025-08-20_14h20.02.477,GLINT,2024.2.4,MacIntel,64.1025641,,,,,,,,,,,,,,,,,,,,bread,inanim_natural,5,lawnmower,corn,butterfly,apple,bread,binoculars,cow,cat,train,5,1,2.2826,,bread,inanim_natural,1,natural,2,5,41,6,1,,,,,,
{{Xinyi}},2025-08-20_14h20.02.477,GLINT,2024.2.4,MacIntel,64.1025641,,,,,,,,,,,,,,,,,,,,airplane,inanim_artificial,8,cow,avocado,binoculars,pineapple,butterfly,dog,corn,airplane,lawnmower,8,1,4.083,,airplane,inanim_artificial,1,natural,2,6,42,12,1,,,,,,
{{Xinyi}},2025-08-20_14h20.02.477,GLINT,2024.2.4,MacIntel,64.1025641,,,,,,,,,,,,,,,,,,,,lawnmower,inanim_artificial,7,airplane,car,cat,apple,corn,cow,lawnmower,bear,bread,7,1,1.532,,lawnmower,inanim_artificial,1,natural,2,7,43,16,1,,,,,,
{{Xinyi}},2025-08-20_14h20.02.477,GLINT,2024.2.4,MacIntel,64.1025641,,,,,,,,,,,,,,,,,,,,cat,anim_natural,7,binoculars,cow,corn,train,dog,car,cat,avocado,bread,7,1,2.2665,,cat,anim_natural,1,natural,2,8,44,2,1,,,,,,
{{Xinyi}},2025-08-20_14h20.02.477,GLINT,2024.2.4,MacIntel,64.1025641,,,,,,,,,,,,,,,,,,,,car,inanim_artificial,2,avocado,car,house,dog,corn,snail,pineapple,cat,train,2,1,1.3299,,car,inanim_artificial,1,natural,2,9,45,14,1,,,,,,
{{Xinyi}},2025-08-20_14h20.02.477,GLINT,2024.2.4,MacIntel,64.1025641,,,,,,,,,,,,,,,,,,,,apple,inanim_natural,3,lawnmower,dog,apple,car,bread,mushroom,bear,butterfly,house,3,1,1.8058,,apple,inanim_natural,1,natural,2,10,46,9,1,,,,,,
{{Xinyi}},2025-08-20_14h20.02.477,GLINT,2024.2.4,MacIntel,64.1025641,,,,,,,,,,,,,,,,,,,,house,inanim_artificial,7,pineapple,bear,train,lawnmower,dog,corn,house,avocado,snail,7,1,1.5973,,house,inanim_artificial,1,natural,2,11,47,15,1,,,,,,
{{Xinyi}},2025-08-20_14h20.02.477,GLINT,2024.2.4,MacIntel,64.1025641,,,,,,,,,,,,,,,,,,,,snail,anim_natural,4,cat,pineapple,apple,snail,butterfly,lawnmower,house,bread,binoculars,4,1,3.2329,,snail,anim_natural,1,natural,2,12,48,5,1,,,,,,
{{Xinyi}},2025-08-20_14h20.02.477,GLINT,2024.2.4,MacIntel,64.1025641,,,,,,,,,,,,,,,,,,,,corn,inanim_natural,2,cow,corn,avocado,car,mushroom,cat,house,dog,binoculars,2,1,1.2956,,corn,inanim_natural,1,natural,2,13,49,10,1,,,,,,
{{Xinyi}},2025-08-20_14h20.02.477,GLINT,2024.2.4,MacIntel,64.1025641,,,,,,,,,,,,,,,,,,,,mushroom,inanim_natural,8,car,butterfly,apple,house,cat,lawnmower,corn,mushroom,cow,8,1,1.7741,,mushroom,inanim_natural,1,natural,2,14,50,7,1,,,,,,
{{Xinyi}},2025-08-20_14h20.02.477,GLINT,2024.2.4,MacIntel,64.1025641,,,,,,,,,,,,,,,,,,,,butterfly,anim_natural,6,avocado,apple,cow,bread,train,butterfly,cat,binoculars,car,6,1,1.4758,,butterfly,anim_natural,1,natural,2,15,51,1,1,,,,,,
{{Xinyi}},2025-08-20_14h20.02.477,GLINT,2024.2.4,MacIntel,64.1025641,,,,,,,,,,,,,,,,,,,,bear,anim_natural,8,pineapple,apple,house,mushroom,car,snail,lawnmower,bear,cat,8,1,2.5892,,bear,anim_natural,1,natural,2,16,52,0,1,,,,,,
{{Xinyi}},2025-08-20_14h20.02.477,GLINT,2024.2.4,MacIntel,64.1025641,,,,,,,,,,,,,,,,,,,,binoculars,inanim_artificial,2,cat,binoculars,mushroom,apple,snail,dog,corn,lawnmower,car,2,1,1.9867,,binoculars,inanim_artificial,1,natural,2,17,53,13,1,,,,,,
{{Xinyi}},2025-08-20_14h20.02.477,GLINT,2024.2.4,MacIntel,64.1025641,,,,,,,,,,,,,,,,,,,,train,inanim_artificial,3,cat,mushroom,train,snail,airplane,lawnmower,pineapple,apple,cow,3,1,3.2668,,train,inanim_artificial,1,natural,3,0,54,17,1,,,,,,
{{Xinyi}},2025-08-20_14h20.02.477,GLINT,2024.2.4,MacIntel,64.1025641,,,,,,,,,,,,,,,,,,,,bread,inanim_natural,1,bread,bear,apple,train,corn,house,cow,binoculars,dog,1,1,2.7745,,bread,inanim_natural,1,natural,3,1,55,6,1,,,,,,
{{Xinyi}},2025-08-20_14h20.02.477,GLINT,2024.2.4,MacIntel,64.1025641,,,,,,,,,,,,,,,,,,,,house,inanim_artificial,2,airplane,house,apple,butterfly,corn,bear,bread,snail,binoculars,2,1,1.0363,,house,inanim_artificial,1,natural,3,2,56,15,1,,,,,,
{{Xinyi}},2025-08-20_14h20.02.477,GLINT,2024.2.4,MacIntel,64.1025641,,,,,,,,,,,,,,,,,,,,avocado,inanim_natural,7,airplane,cow,cat,corn,apple,house,avocado,snail,binoculars,7,1,2.3268,,avocado,inanim_natural,1,natural,3,3,57,11,1,,,,,,
{{Xinyi}},2025-08-20_14h20.02.477,GLINT,2024.2.4,MacIntel,64.1025641,,,,,,,,,,,,,,,,,,,,apple,inanim_natural,6,binoculars,dog,bread,lawnmower,pineapple,apple,bear,cat,car,6,1,2.1246,,apple,inanim_natural,1,natural,3,4,58,9,1,,,,,,
{{Xinyi}},2025-08-20_14h20.02.477,GLINT,2024.2.4,MacIntel,64.1025641,,,,,,,,,,,,,,,,,,,,mushroom,inanim_natural,3,cow,corn,mushroom,snail,butterfly,binoculars,avocado,airplane,train,3,1,1.4427,,mushroom,inanim_natural,1,natural,3,5,59,7,1,,,,,,
{{Xinyi}},2025-08-20_14h20.02.477,GLINT,2024.2.4,MacIntel,64.1025641,,,,,,,,,,,,,,,,,,,,corn,inanim_natural,9,car,butterfly,snail,lawnmower,cat,pineapple,apple,airplane,corn,,0,,,no response,no response,0,natural,3,6,60,10,1,,,,,,
{{Xinyi}},2025-08-20_14h20.02.477,GLINT,2024.2.4,MacIntel,64.1025641,,,,,,,,,,,,,,,,,,,,car,inanim_artificial,3,corn,bread,car,binoculars,pineapple,airplane,cat,butterfly,dog,3,1,1.3173,,car,inanim_artificial,1,natural,3,7,61,14,1,,,,,,
{{Xinyi}},2025-08-20_14h20.02.477,GLINT,2024.2.4,MacIntel,64.1025641,,,,,,,,,,,,,,,,,,,,cow,anim_natural,2,cat,cow,airplane,car,mushroom,binoculars,apple,pineapple,bear,2,1,4.7619,,cow,anim_natural,1,natural,3,8,62,3,1,,,,,,
{{Xinyi}},2025-08-20_14h20.02.477,GLINT,2024.2.4,MacIntel,64.1025641,,,,,,,,,,,,,,,,,,,,bear,anim_natural,6,pineapple,house,dog,apple,car,bear,snail,lawnmower,avocado,6,1,2.314,,bear,anim_natural,1,natural,3,9,63,0,1,,,,,,
{{Xinyi}},2025-08-20_14h20.02.477,GLINT,2024.2.4,MacIntel,64.1025641,,,,,,,,,,,,,,,,,,,,dog,anim_natural,2,corn,dog,cow,airplane,house,snail,binoculars,avocado,pineapple,2,1,0.7592,,dog,anim_natural,1,natural,3,10,64,4,1,,,,,,
{{Xinyi}},2025-08-20_14h20.02.477,GLINT,2024.2.4,MacIntel,64.1025641,,,,,,,,,,,,,,,,,,,,butterfly,anim_natural,1,butterfly,dog,lawnmower,binoculars,bread,pineapple,snail,car,mushroom,1,1,1.5074,,butterfly,anim_natural,1,natural,3,11,65,1,1,,,,,,
{{Xinyi}},2025-08-20_14h20.02.477,GLINT,2024.2.4,MacIntel,64.1025641,,,,,,,,,,,,,,,,,,,,lawnmower,inanim_artificial,4,butterfly,avocado,apple,lawnmower,binoculars,train,dog,mushroom,bear,4,1,1.3342,,lawnmower,inanim_artificial,1,natural,3,12,66,16,1,,,,,,
{{Xinyi}},2025-08-20_14h20.02.477,GLINT,2024.2.4,MacIntel,64.1025641,,,,,,,,,,,,,,,,,,,,cat,anim_natural,9,house,cow,avocado,mushroom,dog,lawnmower,pineapple,train,cat,9,1,2.732,,cat,anim_natural,1,natural,3,13,67,2,1,,,,,,
{{Xinyi}},2025-08-20_14h20.02.477,GLINT,2024.2.4,MacIntel,64.1025641,,,,,,,,,,,,,,,,,,,,snail,anim_natural,6,avocado,corn,binoculars,lawnmower,apple,snail,cat,bear,train,6,1,1.6496,,snail,anim_natural,1,natural,3,14,68,5,1,,,,,,
{{Xinyi}},2025-08-20_14h20.02.477,GLINT,2024.2.4,MacIntel,64.1025641,,,,,,,,,,,,,,,,,,,,airplane,inanim_artificial,2,cow,airplane,lawnmower,train,cat,mushroom,butterfly,apple,pineapple,2,1,2.1103,,airplane,inanim_artificial,1,natural,3,15,69,12,1,,,,,,
{{Xinyi}},2025-08-20_14h20.02.477,GLINT,2024.2.4,MacIntel,64.1025641,,,,,,,,,,,,,,,,,,,,pineapple,inanim_natural,2,cat,pineapple,cow,car,avocado,train,airplane,snail,mushroom,2,1,1.3319,,pineapple,inanim_natural,1,natural,3,16,70,8,1,,,,,,
{{Xinyi}},2025-08-20_14h20.02.477,GLINT,2024.2.4,MacIntel,64.1025641,,,,,,,,,,,,,,,,,,,,binoculars,inanim_artificial,9,bread,bear,cow,snail,pineapple,apple,lawnmower,car,binoculars,9,1,1.9234,,binoculars,inanim_artificial,1,natural,3,17,71,13,1,,,,,,
{{Xinyi}},2025-08-20_14h20.02.477,GLINT,2024.2.4,MacIntel,64.1025641,,,,,,,,,,,,,,,,,,,,,,,,,,,,,,,,,,,,,,,,,,,,,0,0,0,0,1,natural
{{Xinyi}},2025-08-20_14h20.02.477,GLINT,2024.2.4,MacIntel,64.1025641,,,,,,,,,,,,,,,,,,,,cow,anim_natural,8,house,mushroom,train,bread,cat,dog,avocado,cow,lawnmower,8,1,2.7571,,cow,anim_natural,1,line_drawing,0,0,0,3,1,,,,,,
{{Xinyi}},2025-08-20_14h20.02.477,GLINT,2024.2.4,MacIntel,64.1025641,,,,,,,,,,,,,,,,,,,,airplane,inanim_artificial,9,bread,snail,binoculars,butterfly,avocado,cow,pineapple,train,airplane,9,1,2.4651,,airplane,inanim_artificial,1,line_drawing,0,1,1,12,1,,,,,,
{{Xinyi}},2025-08-20_14h20.02.477,GLINT,2024.2.4,MacIntel,64.1025641,,,,,,,,,,,,,,,,,,,,house,inanim_artificial,7,butterfly,dog,pineapple,train,avocado,bread,house,lawnmower,snail,7,1,2.6011,,house,inanim_artificial,1,line_drawing,0,2,2,15,1,,,,,,
{{Xinyi}},2025-08-20_14h20.02.477,GLINT,2024.2.4,MacIntel,64.1025641,,,,,,,,,,,,,,,,,,,,mushroom,inanim_natural,3,airplane,car,mushroom,pineapple,lawnmower,cat,dog,bear,corn,3,1,1.8648,,mushroom,inanim_natural,1,line_drawing,0,3,3,7,1,,,,,,
{{Xinyi}},2025-08-20_14h20.02.477,GLINT,2024.2.4,MacIntel,64.1025641,,,,,,,,,,,,,,,,,,,,binoculars,inanim_artificial,5,car,bread,snail,mushroom,binoculars,cow,cat,train,apple,5,1,2.4768,,binoculars,inanim_artificial,1,line_drawing,0,4,4,13,1,,,,,,
{{Xinyi}},2025-08-20_14h20.02.477,GLINT,2024.2.4,MacIntel,64.1025641,,,,,,,,,,,,,,,,,,,,apple,inanim_natural,6,binoculars,pineapple,cat,car,dog,apple,mushroom,butterfly,lawnmower,7,0,2.9839,,mushroom,inanim_natural,1,line_drawing,0,5,5,9,1,,,,,,
{{Xinyi}},2025-08-20_14h20.02.477,GLINT,2024.2.4,MacIntel,64.1025641,,,,,,,,,,,,,,,,,,,,avocado,inanim_natural,5,car,dog,corn,butterfly,avocado,apple,house,snail,airplane,5,1,1.6159,,avocado,inanim_natural,1,line_drawing,0,6,6,11,1,,,,,,
{{Xinyi}},2025-08-20_14h20.02.477,GLINT,2024.2.4,MacIntel,64.1025641,,,,,,,,,,,,,,,,,,,,lawnmower,inanim_artificial,7,apple,dog,pineapple,mushroom,butterfly,binoculars,lawnmower,airplane,cat,7,1,2.4996,,lawnmower,inanim_artificial,1,line_drawing,0,7,7,16,1,,,,,,
{{Xinyi}},2025-08-20_14h20.02.477,GLINT,2024.2.4,MacIntel,64.1025641,,,,,,,,,,,,,,,,,,,,car,inanim_artificial,7,dog,avocado,binoculars,bear,corn,lawnmower,car,bread,cat,7,1,2.384,,car,inanim_artificial,1,line_drawing,0,8,8,14,1,,,,,,
{{Xinyi}},2025-08-20_14h20.02.477,GLINT,2024.2.4,MacIntel,64.1025641,,,,,,,,,,,,,,,,,,,,bread,inanim_natural,5,car,bear,mushroom,butterfly,bread,corn,house,dog,binoculars,3,0,3.5181,,mushroom,inanim_natural,1,line_drawing,0,9,9,6,1,,,,,,
{{Xinyi}},2025-08-20_14h20.02.477,GLINT,2024.2.4,MacIntel,64.1025641,,,,,,,,,,,,,,,,,,,,snail,anim_natural,8,pineapple,mushroom,train,bear,avocado,airplane,house,snail,butterfly,5,0,2.0245,,avocado,inanim_natural,0,line_drawing,0,10,10,5,1,,,,,,
{{Xinyi}},2025-08-20_14h20.02.477,GLINT,2024.2.4,MacIntel,64.1025641,,,,,,,,,,,,,,,,,,,,pineapple,inanim_natural,3,snail,bear,pineapple,airplane,lawnmower,butterfly,corn,house,mushroom,5,0,4.2593,,lawnmower,inanim_artificial,0,line_drawing,0,11,11,8,1,,,,,,
{{Xinyi}},2025-08-20_14h20.02.477,GLINT,2024.2.4,MacIntel,64.1025641,,,,,,,,,,,,,,,,,,,,corn,inanim_natural,2,cat,corn,train,pineapple,snail,binoculars,cow,house,bread,2,1,1.6313,,corn,inanim_natural,1,line_drawing,0,12,12,10,1,,,,,,
{{Xinyi}},2025-08-20_14h20.02.477,GLINT,2024.2.4,MacIntel,64.1025641,,,,,,,,,,,,,,,,,,,,dog,anim_natural,7,binoculars,airplane,snail,corn,bread,mushroom,dog,cow,lawnmower,7,1,3.9205,,dog,anim_natural,1,line_drawing,0,13,13,4,1,,,,,,
{{Xinyi}},2025-08-20_14h20.02.477,GLINT,2024.2.4,MacIntel,64.1025641,,,,,,,,,,,,,,,,,,,,cat,anim_natural,4,bear,apple,lawnmower,cat,corn,pineapple,snail,binoculars,train,4,1,3.7556,,cat,anim_natural,1,line_drawing,0,14,14,2,1,,,,,,
{{Xinyi}},2025-08-20_14h20.02.477,GLINT,2024.2.4,MacIntel,64.1025641,,,,,,,,,,,,,,,,,,,,bear,anim_natural,5,dog,cat,house,apple,bear,bread,lawnmower,car,corn,,0,,,no response,no response,0,line_drawing,0,15,15,0,1,,,,,,
{{Xinyi}},2025-08-20_14h20.02.477,GLINT,2024.2.4,MacIntel,64.1025641,,,,,,,,,,,,,,,,,,,,train,inanim_artificial,1,train,dog,house,cow,avocado,pineapple,airplane,mushroom,snail,1,1,1.3179,,train,inanim_artificial,1,line_drawing,0,16,16,17,1,,,,,,
{{Xinyi}},2025-08-20_14h20.02.477,GLINT,2024.2.4,MacIntel,64.1025641,,,,,,,,,,,,,,,,,,,,butterfly,anim_natural,2,pineapple,butterfly,bread,airplane,house,cat,car,corn,cow,2,1,1.6025,,butterfly,anim_natural,1,line_drawing,0,17,17,1,1,,,,,,
{{Xinyi}},2025-08-20_14h20.02.477,GLINT,2024.2.4,MacIntel,64.1025641,,,,,,,,,,,,,,,,,,,,lawnmower,inanim_artificial,4,airplane,butterfly,bread,lawnmower,cow,corn,binoculars,mushroom,snail,4,1,1.4429,,lawnmower,inanim_artificial,1,line_drawing,1,0,18,16,1,,,,,,
{{Xinyi}},2025-08-20_14h20.02.477,GLINT,2024.2.4,MacIntel,64.1025641,,,,,,,,,,,,,,,,,,,,snail,anim_natural,4,corn,mushroom,dog,snail,house,cow,binoculars,avocado,train,4,1,1.7999,,snail,anim_natural,1,line_drawing,1,1,19,5,1,,,,,,
{{Xinyi}},2025-08-20_14h20.02.477,GLINT,2024.2.4,MacIntel,64.1025641,,,,,,,,,,,,,,,,,,,,binoculars,inanim_artificial,5,train,snail,mushroom,pineapple,binoculars,bread,cow,car,cat,5,1,0.7307,,binoculars,inanim_artificial,1,line_drawing,1,2,20,13,1,,,,,,
{{Xinyi}},2025-08-20_14h20.02.477,GLINT,2024.2.4,MacIntel,64.1025641,,,,,,,,,,,,,,,,,,,,butterfly,anim_natural,3,cow,car,butterfly,apple,house,binoculars,avocado,snail,bread,3,1,1.9697,,butterfly,anim_natural,1,line_drawing,1,3,21,1,1,,,,,,
{{Xinyi}},2025-08-20_14h20.02.477,GLINT,2024.2.4,MacIntel,64.1025641,,,,,,,,,,,,,,,,,,,,cat,anim_natural,1,cat,snail,car,house,cow,mushroom,binoculars,avocado,corn,2,0,1.0805,,snail,anim_natural,1,line_drawing,1,4,22,2,1,,,,,,
{{Xinyi}},2025-08-20_14h20.02.477,GLINT,2024.2.4,MacIntel,64.1025641,,,,,,,,,,,,,,,,,,,,car,inanim_artificial,3,house,airplane,car,apple,cat,cow,mushroom,butterfly,pineapple,3,1,2.2556,,car,inanim_artificial,1,line_drawing,1,5,23,14,1,,,,,,
{{Xinyi}},2025-08-20_14h20.02.477,GLINT,2024.2.4,MacIntel,64.1025641,,,,,,,,,,,,,,,,,,,,avocado,inanim_natural,8,dog,car,snail,bread,mushroom,train,airplane,avocado,bear,8,1,2.0663,,avocado,inanim_natural,1,line_drawing,1,6,24,11,1,,,,,,
{{Xinyi}},2025-08-20_14h20.02.477,GLINT,2024.2.4,MacIntel,64.1025641,,,,,,,,,,,,,,,,,,,,bear,anim_natural,1,bear,cow,lawnmower,mushroom,corn,pineapple,train,house,cat,1,1,1.2875,,bear,anim_natural,1,line_drawing,1,7,25,0,1,,,,,,
{{Xinyi}},2025-08-20_14h20.02.477,GLINT,2024.2.4,MacIntel,64.1025641,,,,,,,,,,,,,,,,,,,,pineapple,inanim_natural,1,pineapple,corn,mushroom,house,cat,airplane,cow,binoculars,butterfly,1,1,3.4072,,pineapple,inanim_natural,1,line_drawing,1,8,26,8,1,,,,,,
{{Xinyi}},2025-08-20_14h20.02.477,GLINT,2024.2.4,MacIntel,64.1025641,,,,,,,,,,,,,,,,,,,,dog,anim_natural,1,dog,avocado,lawnmower,apple,cow,corn,bear,airplane,train,1,1,2.4193,,dog,anim_natural,1,line_drawing,1,9,27,4,1,,,,,,
{{Xinyi}},2025-08-20_14h20.02.477,GLINT,2024.2.4,MacIntel,64.1025641,,,,,,,,,,,,,,,,,,,,train,inanim_artificial,6,bread,snail,binoculars,pineapple,airplane,train,apple,cow,dog,6,1,1.9963,,train,inanim_artificial,1,line_drawing,1,10,28,17,1,,,,,,
{{Xinyi}},2025-08-20_14h20.02.477,GLINT,2024.2.4,MacIntel,64.1025641,,,,,,,,,,,,,,,,,,,,airplane,inanim_artificial,1,airplane,house,apple,cat,mushroom,snail,binoculars,butterfly,corn,1,1,1.2392,,airplane,inanim_artificial,1,line_drawing,1,11,29,12,1,,,,,,
{{Xinyi}},2025-08-20_14h20.02.477,GLINT,2024.2.4,MacIntel,64.1025641,,,,,,,,,,,,,,,,,,,,bread,inanim_natural,9,house,mushroom,dog,car,binoculars,bear,apple,butterfly,bread,9,1,3.1748,,bread,inanim_natural,1,line_drawing,1,12,30,6,1,,,,,,
{{Xinyi}},2025-08-20_14h20.02.477,GLINT,2024.2.4,MacIntel,64.1025641,,,,,,,,,,,,,,,,,,,,corn,inanim_natural,2,snail,corn,car,binoculars,bear,cow,house,avocado,apple,2,1,1.3795,,corn,inanim_natural,1,line_drawing,1,13,31,10,1,,,,,,
{{Xinyi}},2025-08-20_14h20.02.477,GLINT,2024.2.4,MacIntel,64.1025641,,,,,,,,,,,,,,,,,,,,apple,inanim_natural,7,airplane,bread,car,binoculars,cat,butterfly,apple,bear,corn,7,1,3.0031,,apple,inanim_natural,1,line_drawing,1,14,32,9,1,,,,,,
{{Xinyi}},2025-08-20_14h20.02.477,GLINT,2024.2.4,MacIntel,64.1025641,,,,,,,,,,,,,,,,,,,,mushroom,inanim_natural,1,mushroom,train,bear,pineapple,cat,bread,binoculars,cow,house,,0,,,no response,no response,0,line_drawing,1,15,33,7,1,,,,,,
{{Xinyi}},2025-08-20_14h20.02.477,GLINT,2024.2.4,MacIntel,64.1025641,,,,,,,,,,,,,,,,,,,,cow,anim_natural,4,bread,pineapple,butterfly,cow,apple,binoculars,snail,train,lawnmower,,0,,,no response,no response,0,line_drawing,1,16,34,3,1,,,,,,
{{Xinyi}},2025-08-20_14h20.02.477,GLINT,2024.2.4,MacIntel,64.1025641,,,,,,,,,,,,,,,,,,,,house,inanim_artificial,6,cow,apple,avocado,butterfly,corn,house,lawnmower,car,cat,6,1,3.0498,,house,inanim_artificial,1,line_drawing,1,17,35,15,1,,,,,,
{{Xinyi}},2025-08-20_14h20.02.477,GLINT,2024.2.4,MacIntel,64.1025641,,,,,,,,,,,,,,,,,,,,avocado,inanim_natural,2,apple,avocado,bear,dog,car,lawnmower,bread,snail,house,2,1,1.0181,,avocado,inanim_natural,1,line_drawing,2,0,36,11,1,,,,,,
{{Xinyi}},2025-08-20_14h20.02.477,GLINT,2024.2.4,MacIntel,64.1025641,,,,,,,,,,,,,,,,,,,,house,inanim_artificial,5,cat,corn,avocado,dog,house,snail,lawnmower,binoculars,mushroom,5,1,1.9991,,house,inanim_artificial,1,line_drawing,2,1,37,15,1,,,,,,
{{Xinyi}},2025-08-20_14h20.02.477,GLINT,2024.2.4,MacIntel,64.1025641,,,,,,,,,,,,,,,,,,,,bear,anim_natural,1,bear,airplane,snail,cow,pineapple,bread,car,avocado,binoculars,1,1,2.6675,,bear,anim_natural,1,line_drawing,2,2,38,0,1,,,,,,
{{Xinyi}},2025-08-20_14h20.02.477,GLINT,2024.2.4,MacIntel,64.1025641,,,,,,,,,,,,,,,,,,,,airplane,inanim_artificial,7,train,cow,butterfly,car,corn,bread,airplane,apple,cat,7,1,2.6307,,airplane,inanim_artificial,1,line_drawing,2,3,39,12,1,,,,,,
{{Xinyi}},2025-08-20_14h20.02.477,GLINT,2024.2.4,MacIntel,64.1025641,,,,,,,,,,,,,,,,,,,,cat,anim_natural,4,lawnmower,mushroom,pineapple,cat,cow,car,butterfly,avocado,airplane,4,1,1.7817,,cat,anim_natural,1,line_drawing,2,4,40,2,1,,,,,,
{{Xinyi}},2025-08-20_14h20.02.477,GLINT,2024.2.4,MacIntel,64.1025641,,,,,,,,,,,,,,,,,,,,apple,inanim_natural,4,lawnmower,snail,butterfly,apple,mushroom,car,house,dog,corn,4,1,1.6769,,apple,inanim_natural,1,line_drawing,2,5,41,9,1,,,,,,
{{Xinyi}},2025-08-20_14h20.02.477,GLINT,2024.2.4,MacIntel,64.1025641,,,,,,,,,,,,,,,,,,,,dog,anim_natural,3,airplane,house,dog,bear,lawnmower,butterfly,apple,avocado,mushroom,3,1,1.907,,dog,anim_natural,1,line_drawing,2,6,42,4,1,,,,,,
{{Xinyi}},2025-08-20_14h20.02.477,GLINT,2024.2.4,MacIntel,64.1025641,,,,,,,,,,,,,,,,,,,,cow,anim_natural,2,snail,cow,airplane,cat,house,lawnmower,corn,mushroom,avocado,2,1,1.8638,,cow,anim_natural,1,line_drawing,2,7,43,3,1,,,,,,
{{Xinyi}},2025-08-20_14h20.02.477,GLINT,2024.2.4,MacIntel,64.1025641,,,,,,,,,,,,,,,,,,,,lawnmower,inanim_artificial,2,avocado,lawnmower,pineapple,butterfly,bear,house,mushroom,car,cat,2,1,3.4476,,lawnmower,inanim_artificial,1,line_drawing,2,8,44,16,1,,,,,,
{{Xinyi}},2025-08-20_14h20.02.477,GLINT,2024.2.4,MacIntel,64.1025641,,,,,,,,,,,,,,,,,,,,corn,inanim_natural,3,train,snail,corn,cow,binoculars,house,mushroom,dog,avocado,3,1,1.4912,,corn,inanim_natural,1,line_drawing,2,9,45,10,1,,,,,,
{{Xinyi}},2025-08-20_14h20.02.477,GLINT,2024.2.4,MacIntel,64.1025641,,,,,,,,,,,,,,,,,,,,car,inanim_artificial,2,dog,car,avocado,cat,mushroom,train,bear,apple,lawnmower,2,1,1.1415,,car,inanim_artificial,1,line_drawing,2,10,46,14,1,,,,,,
{{Xinyi}},2025-08-20_14h20.02.477,GLINT,2024.2.4,MacIntel,64.1025641,,,,,,,,,,,,,,,,,,,,binoculars,inanim_artificial,4,dog,house,pineapple,binoculars,butterfly,car,corn,apple,cat,4,1,1.4542,,binoculars,inanim_artificial,1,line_drawing,2,11,47,13,1,,,,,,
{{Xinyi}},2025-08-20_14h20.02.477,GLINT,2024.2.4,MacIntel,64.1025641,,,,,,,,,,,,,,,,,,,,bread,inanim_natural,4,avocado,apple,butterfly,bread,binoculars,car,cat,train,cow,1,0,1.4,,avocado,inanim_natural,1,line_drawing,2,12,48,6,1,,,,,,
{{Xinyi}},2025-08-20_14h20.02.477,GLINT,2024.2.4,MacIntel,64.1025641,,,,,,,,,,,,,,,,,,,,train,inanim_artificial,6,cow,butterfly,house,bread,dog,train,avocado,corn,airplane,6,1,3.2337,,train,inanim_artificial,1,line_drawing,2,13,49,17,1,,,,,,
{{Xinyi}},2025-08-20_14h20.02.477,GLINT,2024.2.4,MacIntel,64.1025641,,,,,,,,,,,,,,,,,,,,snail,anim_natural,7,pineapple,bread,binoculars,mushroom,house,dog,snail,cow,train,7,1,1.5636,,snail,anim_natural,1,line_drawing,2,14,50,5,1,,,,,,
{{Xinyi}},2025-08-20_14h20.02.477,GLINT,2024.2.4,MacIntel,64.1025641,,,,,,,,,,,,,,,,,,,,pineapple,inanim_natural,8,car,airplane,bear,corn,apple,cow,butterfly,pineapple,house,8,1,1.8325,,pineapple,inanim_natural,1,line_drawing,2,15,51,8,1,,,,,,
{{Xinyi}},2025-08-20_14h20.02.477,GLINT,2024.2.4,MacIntel,64.1025641,,,,,,,,,,,,,,,,,,,,mushroom,inanim_natural,7,cow,binoculars,cat,bread,avocado,dog,mushroom,lawnmower,train,7,1,2.415,,mushroom,inanim_natural,1,line_drawing,2,16,52,7,1,,,,,,
{{Xinyi}},2025-08-20_14h20.02.477,GLINT,2024.2.4,MacIntel,64.1025641,,,,,,,,,,,,,,,,,,,,butterfly,anim_natural,9,cat,pineapple,house,cow,corn,mushroom,lawnmower,train,butterfly,9,1,2.5657,,butterfly,anim_natural,1,line_drawing,2,17,53,1,1,,,,,,
{{Xinyi}},2025-08-20_14h20.02.477,GLINT,2024.2.4,MacIntel,64.1025641,,,,,,,,,,,,,,,,,,,,airplane,inanim_artificial,3,avocado,bear,airplane,house,apple,car,corn,cat,cow,3,1,1.8515,,airplane,inanim_artificial,1,line_drawing,3,0,54,12,1,,,,,,
{{Xinyi}},2025-08-20_14h20.02.477,GLINT,2024.2.4,MacIntel,64.1025641,,,,,,,,,,,,,,,,,,,,house,inanim_artificial,7,bread,snail,car,apple,train,cow,house,corn,bear,7,1,2.0331,,house,inanim_artificial,1,line_drawing,3,1,55,15,1,,,,,,
{{Xinyi}},2025-08-20_14h20.02.477,GLINT,2024.2.4,MacIntel,64.1025641,,,,,,,,,,,,,,,,,,,,train,inanim_artificial,1,train,corn,cat,mushroom,dog,pineapple,airplane,snail,car,2,0,3.3324,,corn,inanim_natural,0,line_drawing,3,2,56,17,1,,,,,,
{{Xinyi}},2025-08-20_14h20.02.477,GLINT,2024.2.4,MacIntel,64.1025641,,,,,,,,,,,,,,,,,,,,mushroom,inanim_natural,6,airplane,cow,corn,binoculars,car,mushroom,snail,bread,bear,6,1,1.4313,,mushroom,inanim_natural,1,line_drawing,3,3,57,7,1,,,,,,
{{Xinyi}},2025-08-20_14h20.02.477,GLINT,2024.2.4,MacIntel,64.1025641,,,,,,,,,,,,,,,,,,,,bread,inanim_natural,2,bear,bread,train,airplane,avocado,mushroom,cow,lawnmower,dog,2,1,1.0666,,bread,inanim_natural,1,line_drawing,3,4,58,6,1,,,,,,
{{Xinyi}},2025-08-20_14h20.02.477,GLINT,2024.2.4,MacIntel,64.1025641,,,,,,,,,,,,,,,,,,,,pineapple,inanim_natural,7,corn,lawnmower,house,avocado,snail,dog,pineapple,cat,car,7,1,1.5141,,pineapple,inanim_natural,1,line_drawing,3,5,59,8,1,,,,,,
{{Xinyi}},2025-08-20_14h20.02.477,GLINT,2024.2.4,MacIntel,64.1025641,,,,,,,,,,,,,,,,,,,,cat,anim_natural,5,mushroom,car,lawnmower,avocado,cat,pineapple,house,dog,butterfly,5,1,1.5865,,cat,anim_natural,1,line_drawing,3,6,60,2,1,,,,,,
{{Xinyi}},2025-08-20_14h20.02.477,GLINT,2024.2.4,MacIntel,64.1025641,,,,,,,,,,,,,,,,,,,,bear,anim_natural,6,snail,train,corn,car,cat,bear,avocado,bread,binoculars,6,1,2.3521,,bear,anim_natural,1,line_drawing,3,7,61,0,1,,,,,,
{{Xinyi}},2025-08-20_14h20.02.477,GLINT,2024.2.4,MacIntel,64.1025641,,,,,,,,,,,,,,,,,,,,corn,inanim_natural,4,house,cat,pineapple,corn,dog,bread,car,airplane,bear,4,1,1.6408,,corn,inanim_natural,1,line_drawing,3,8,62,10,1,,,,,,
{{Xinyi}},2025-08-20_14h20.02.477,GLINT,2024.2.4,MacIntel,64.1025641,,,,,,,,,,,,,,,,,,,,cow,anim_natural,4,mushroom,snail,airplane,cow,train,avocado,pineapple,lawnmower,dog,4,1,1.9901,,cow,anim_natural,1,line_drawing,3,9,63,3,1,,,,,,
{{Xinyi}},2025-08-20_14h20.02.477,GLINT,2024.2.4,MacIntel,64.1025641,,,,,,,,,,,,,,,,,,,,binoculars,inanim_artificial,2,cow,binoculars,train,bear,pineapple,car,avocado,apple,butterfly,2,1,1.3171,,binoculars,inanim_artificial,1,line_drawing,3,10,64,13,1,,,,,,
{{Xinyi}},2025-08-20_14h20.02.477,GLINT,2024.2.4,MacIntel,64.1025641,,,,,,,,,,,,,,,,,,,,dog,anim_natural,1,dog,bread,snail,airplane,car,avocado,bear,lawnmower,apple,1,1,2.6816,,dog,anim_natural,1,line_drawing,3,11,65,4,1,,,,,,
{{Xinyi}},2025-08-20_14h20.02.477,GLINT,2024.2.4,MacIntel,64.1025641,,,,,,,,,,,,,,,,,,,,butterfly,anim_natural,2,pineapple,butterfly,cat,house,airplane,binoculars,corn,apple,snail,2,1,0.9341,,butterfly,anim_natural,1,line_drawing,3,12,66,1,1,,,,,,
{{Xinyi}},2025-08-20_14h20.02.477,GLINT,2024.2.4,MacIntel,64.1025641,,,,,,,,,,,,,,,,,,,,avocado,inanim_natural,8,pineapple,cow,snail,airplane,car,dog,bread,avocado,house,8,1,2.1929,,avocado,inanim_natural,1,line_drawing,3,13,67,11,1,,,,,,
{{Xinyi}},2025-08-20_14h20.02.477,GLINT,2024.2.4,MacIntel,64.1025641,,,,,,,,,,,,,,,,,,,,lawnmower,inanim_artificial,6,mushroom,snail,binoculars,bear,house,lawnmower,corn,pineapple,butterfly,6,1,2.0637,,lawnmower,inanim_artificial,1,line_drawing,3,14,68,16,1,,,,,,
{{Xinyi}},2025-08-20_14h20.02.477,GLINT,2024.2.4,MacIntel,64.1025641,,,,,,,,,,,,,,,,,,,,car,inanim_artificial,8,corn,bear,avocado,bread,butterfly,binoculars,snail,car,house,8,1,2.2832,,car,inanim_artificial,1,line_drawing,3,15,69,14,1,,,,,,
{{Xinyi}},2025-08-20_14h20.02.477,GLINT,2024.2.4,MacIntel,64.1025641,,,,,,,,,,,,,,,,,,,,apple,inanim_natural,5,pineapple,train,lawnmower,cow,apple,binoculars,butterfly,corn,bear,5,1,2.0174,,apple,inanim_natural,1,line_drawing,3,16,70,9,1,,,,,,
{{Xinyi}},2025-08-20_14h20.02.477,GLINT,2024.2.4,MacIntel,64.1025641,,,,,,,,,,,,,,,,,,,,snail,anim_natural,5,pineapple,train,house,bear,snail,butterfly,lawnmower,apple,corn,5,1,3.0719,,snail,anim_natural,1,line_drawing,3,17,71,5,1,,,,,,
{{Xinyi}},2025-08-20_14h20.02.477,GLINT,2024.2.4,MacIntel,64.1025641,,,,,,,,,,,,,,,,,,,,,,,,,,,,,,,,,,,,,,,,,,,,,0,1,1,1,1,line_drawing
{{Xinyi}},2025-08-20_14h20.02.477,GLINT,2024.2.4,MacIntel,64.1025641,,,,,,,,,,,,,,,,,,,,train,inanim_artificial,6,car,house,cat,pineapple,bread,train,bear,cow,apple,6,1,3.415,,train,inanim_artificial,1,scrambled,0,0,0,17,1,,,,,,
{{Xinyi}},2025-08-20_14h20.02.477,GLINT,2024.2.4,MacIntel,64.1025641,,,,,,,,,,,,,,,,,,,,apple,inanim_natural,2,airplane,apple,binoculars,bear,bread,house,cow,butterfly,mushroom,2,1,1.5157,,apple,inanim_natural,1,scrambled,0,1,1,9,1,,,,,,
{{Xinyi}},2025-08-20_14h20.02.477,GLINT,2024.2.4,MacIntel,64.1025641,,,,,,,,,,,,,,,,,,,,house,inanim_artificial,3,corn,car,house,mushroom,dog,snail,butterfly,pineapple,airplane,3,1,2.6154,,house,inanim_artificial,1,scrambled,0,2,2,15,1,,,,,,
{{Xinyi}},2025-08-20_14h20.02.477,GLINT,2024.2.4,MacIntel,64.1025641,,,,,,,,,,,,,,,,,,,,dog,anim_natural,3,bread,car,dog,butterfly,corn,pineapple,lawnmower,snail,binoculars,3,1,1.2345,,dog,anim_natural,1,scrambled,0,3,3,4,1,,,,,,
{{Xinyi}},2025-08-20_14h20.02.477,GLINT,2024.2.4,MacIntel,64.1025641,,,,,,,,,,,,,,,,,,,,pineapple,inanim_natural,6,butterfly,corn,cow,avocado,house,pineapple,train,snail,airplane,6,1,1.3588,,pineapple,inanim_natural,1,scrambled,0,4,4,8,1,,,,,,
{{Xinyi}},2025-08-20_14h20.02.477,GLINT,2024.2.4,MacIntel,64.1025641,,,,,,,,,,,,,,,,,,,,airplane,inanim_artificial,8,car,bread,snail,cat,corn,pineapple,bear,airplane,lawnmower,8,1,3.5482,,airplane,inanim_artificial,1,scrambled,0,5,5,12,1,,,,,,
{{Xinyi}},2025-08-20_14h20.02.477,GLINT,2024.2.4,MacIntel,64.1025641,,,,,,,,,,,,,,,,,,,,avocado,inanim_natural,7,butterfly,house,snail,bear,train,pineapple,avocado,airplane,bread,7,1,2.7276,,avocado,inanim_natural,1,scrambled,0,6,6,11,1,,,,,,
{{Xinyi}},2025-08-20_14h20.02.477,GLINT,2024.2.4,MacIntel,64.1025641,,,,,,,,,,,,,,,,,,,,mushroom,inanim_natural,2,cat,mushroom,airplane,corn,lawnmower,house,bear,butterfly,bread,2,1,1.5219,,mushroom,inanim_natural,1,scrambled,0,7,7,7,1,,,,,,
{{Xinyi}},2025-08-20_14h20.02.477,GLINT,2024.2.4,MacIntel,64.1025641,,,,,,,,,,,,,,,,,,,,car,inanim_artificial,2,dog,car,cat,corn,airplane,cow,binoculars,avocado,apple,2,1,1.1291,,car,inanim_artificial,1,scrambled,0,8,8,14,1,,,,,,
{{Xinyi}},2025-08-20_14h20.02.477,GLINT,2024.2.4,MacIntel,64.1025641,,,,,,,,,,,,,,,,,,,,binoculars,inanim_artificial,9,bread,avocado,lawnmower,cow,snail,house,mushroom,dog,binoculars,9,1,2.9905,,binoculars,inanim_artificial,1,scrambled,0,9,9,13,1,,,,,,
{{Xinyi}},2025-08-20_14h20.02.477,GLINT,2024.2.4,MacIntel,64.1025641,,,,,,,,,,,,,,,,,,,,butterfly,anim_natural,1,butterfly,airplane,apple,corn,bear,cat,pineapple,binoculars,lawnmower,1,1,1.2008,,butterfly,anim_natural,1,scrambled,0,10,10,1,1,,,,,,
{{Xinyi}},2025-08-20_14h20.02.477,GLINT,2024.2.4,MacIntel,64.1025641,,,,,,,,,,,,,,,,,,,,lawnmower,inanim_artificial,2,binoculars,lawnmower,dog,corn,butterfly,bear,airplane,apple,pineapple,2,1,2.3757,,lawnmower,inanim_artificial,1,scrambled,0,11,11,16,1,,,,,,
{{Xinyi}},2025-08-20_14h20.02.477,GLINT,2024.2.4,MacIntel,64.1025641,,,,,,,,,,,,,,,,,,,,cow,anim_natural,2,cat,cow,car,train,bear,bread,house,pineapple,avocado,2,1,1.3488,,cow,anim_natural,1,scrambled,0,12,12,3,1,,,,,,
{{Xinyi}},2025-08-20_14h20.02.477,GLINT,2024.2.4,MacIntel,64.1025641,,,,,,,,,,,,,,,,,,,,bear,anim_natural,9,snail,avocado,butterfly,pineapple,apple,airplane,binoculars,car,bear,9,1,2.3149,,bear,anim_natural,1,scrambled,0,13,13,0,1,,,,,,
{{Xinyi}},2025-08-20_14h20.02.477,GLINT,2024.2.4,MacIntel,64.1025641,,,,,,,,,,,,,,,,,,,,bread,inanim_natural,6,butterfly,pineapple,cow,snail,corn,bread,binoculars,lawnmower,house,6,1,2.4253,,bread,inanim_natural,1,scrambled,0,14,14,6,1,,,,,,
{{Xinyi}},2025-08-20_14h20.02.477,GLINT,2024.2.4,MacIntel,64.1025641,,,,,,,,,,,,,,,,,,,,corn,inanim_natural,3,avocado,snail,corn,binoculars,cow,house,lawnmower,cat,apple,3,1,1.5466,,corn,inanim_natural,1,scrambled,0,15,15,10,1,,,,,,
{{Xinyi}},2025-08-20_14h20.02.477,GLINT,2024.2.4,MacIntel,64.1025641,,,,,,,,,,,,,,,,,,,,snail,anim_natural,7,house,dog,mushroom,airplane,lawnmower,bear,snail,pineapple,corn,7,1,2.4422,,snail,anim_natural,1,scrambled,0,16,16,5,1,,,,,,
{{Xinyi}},2025-08-20_14h20.02.477,GLINT,2024.2.4,MacIntel,64.1025641,,,,,,,,,,,,,,,,,,,,cat,anim_natural,4,mushroom,cow,car,cat,house,apple,train,snail,bread,2,0,1.7054,,cow,anim_natural,1,scrambled,0,17,17,2,1,,,,,,
{{Xinyi}},2025-08-20_14h20.02.477,GLINT,2024.2.4,MacIntel,64.1025641,,,,,,,,,,,,,,,,,,,,avocado,inanim_natural,2,airplane,avocado,cat,train,bread,binoculars,cow,dog,pineapple,2,1,1.1159,,avocado,inanim_natural,1,scrambled,1,0,18,11,1,,,,,,
{{Xinyi}},2025-08-20_14h20.02.477,GLINT,2024.2.4,MacIntel,64.1025641,,,,,,,,,,,,,,,,,,,,airplane,inanim_artificial,4,apple,bread,snail,airplane,bear,car,dog,binoculars,pineapple,4,1,1.8902,,airplane,inanim_artificial,1,scrambled,1,1,19,12,1,,,,,,
{{Xinyi}},2025-08-20_14h20.02.477,GLINT,2024.2.4,MacIntel,64.1025641,,,,,,,,,,,,,,,,,,,,mushroom,inanim_natural,4,snail,binoculars,bear,mushroom,cat,corn,bread,lawnmower,airplane,4,1,2.1318,,mushroom,inanim_natural,1,scrambled,1,2,20,7,1,,,,,,
{{Xinyi}},2025-08-20_14h20.02.477,GLINT,2024.2.4,MacIntel,64.1025641,,,,,,,,,,,,,,,,,,,,car,inanim_artificial,1,car,airplane,binoculars,mushroom,corn,cow,bread,cat,butterfly,1,1,1.1983,,car,inanim_artificial,1,scrambled,1,3,21,14,1,,,,,,
{{Xinyi}},2025-08-20_14h20.02.477,GLINT,2024.2.4,MacIntel,64.1025641,,,,,,,,,,,,,,,,,,,,cat,anim_natural,8,corn,house,train,mushroom,dog,car,apple,cat,snail,8,1,2.6333,,cat,anim_natural,1,scrambled,1,4,22,2,1,,,,,,
{{Xinyi}},2025-08-20_14h20.02.477,GLINT,2024.2.4,MacIntel,64.1025641,,,,,,,,,,,,,,,,,,,,apple,inanim_natural,3,airplane,car,apple,corn,cat,binoculars,pineapple,butterfly,snail,3,1,1.5358,,apple,inanim_natural,1,scrambled,1,5,23,9,1,,,,,,
{{Xinyi}},2025-08-20_14h20.02.477,GLINT,2024.2.4,MacIntel,64.1025641,,,,,,,,,,,,,,,,,,,,pineapple,inanim_natural,5,car,mushroom,cat,dog,pineapple,bread,butterfly,airplane,house,5,1,1.44,,pineapple,inanim_natural,1,scrambled,1,6,24,8,1,,,,,,
{{Xinyi}},2025-08-20_14h20.02.477,GLINT,2024.2.4,MacIntel,64.1025641,,,,,,,,,,,,,,,,,,,,lawnmower,inanim_artificial,5,bear,bread,airplane,mushroom,lawnmower,dog,pineapple,cow,car,5,1,1.7873,,lawnmower,inanim_artificial,1,scrambled,1,7,25,16,1,,,,,,
{{Xinyi}},2025-08-20_14h20.02.477,GLINT,2024.2.4,MacIntel,64.1025641,,,,,,,,,,,,,,,,,,,,dog,anim_natural,5,house,corn,bear,airplane,dog,pineapple,car,bread,snail,5,1,1.7699,,dog,anim_natural,1,scrambled,1,8,26,4,1,,,,,,
{{Xinyi}},2025-08-20_14h20.02.477,GLINT,2024.2.4,MacIntel,64.1025641,,,,,,,,,,,,,,,,,,,,snail,anim_natural,3,corn,binoculars,snail,train,cat,lawnmower,dog,avocado,bread,8,0,2.1851,,avocado,inanim_natural,0,scrambled,1,9,27,5,1,,,,,,
{{Xinyi}},2025-08-20_14h20.02.477,GLINT,2024.2.4,MacIntel,64.1025641,,,,,,,,,,,,,,,,,,,,bear,anim_natural,1,bear,apple,lawnmower,cow,mushroom,cat,airplane,bread,car,1,1,1.4463,,bear,anim_natural,1,scrambled,1,10,28,0,1,,,,,,
{{Xinyi}},2025-08-20_14h20.02.477,GLINT,2024.2.4,MacIntel,64.1025641,,,,,,,,,,,,,,,,,,,,corn,inanim_natural,5,lawnmower,dog,apple,mushroom,corn,binoculars,cat,snail,train,5,1,1.9736,,corn,inanim_natural,1,scrambled,1,11,29,10,1,,,,,,
{{Xinyi}},2025-08-20_14h20.02.477,GLINT,2024.2.4,MacIntel,64.1025641,,,,,,,,,,,,,,,,,,,,bread,inanim_natural,9,cow,dog,house,train,pineapple,butterfly,airplane,apple,bread,9,1,2.6826,,bread,inanim_natural,1,scrambled,1,12,30,6,1,,,,,,
{{Xinyi}},2025-08-20_14h20.02.477,GLINT,2024.2.4,MacIntel,64.1025641,,,,,,,,,,,,,,,,,,,,cow,anim_natural,3,pineapple,house,cow,bear,avocado,lawnmower,car,corn,dog,9,0,2.6602,,dog,anim_natural,1,scrambled,1,13,31,3,1,,,,,,
{{Xinyi}},2025-08-20_14h20.02.477,GLINT,2024.2.4,MacIntel,64.1025641,,,,,,,,,,,,,,,,,,,,train,inanim_artificial,7,avocado,cat,apple,binoculars,snail,lawnmower,train,bear,pineapple,7,1,4.1942,,train,inanim_artificial,1,scrambled,1,14,32,17,1,,,,,,
{{Xinyi}},2025-08-20_14h20.02.477,GLINT,2024.2.4,MacIntel,64.1025641,,,,,,,,,,,,,,,,,,,,binoculars,inanim_artificial,3,butterfly,dog,binoculars,cat,train,car,bread,avocado,mushroom,3,1,1.8327,,binoculars,inanim_artificial,1,scrambled,1,15,33,13,1,,,,,,
{{Xinyi}},2025-08-20_14h20.02.477,GLINT,2024.2.4,MacIntel,64.1025641,,,,,,,,,,,,,,,,,,,,house,inanim_artificial,6,corn,avocado,cow,dog,cat,house,bread,binoculars,car,6,1,2.1862,,house,inanim_artificial,1,scrambled,1,16,34,15,1,,,,,,
{{Xinyi}},2025-08-20_14h20.02.477,GLINT,2024.2.4,MacIntel,64.1025641,,,,,,,,,,,,,,,,,,,,butterfly,anim_natural,9,pineapple,apple,train,airplane,house,cow,avocado,bear,butterfly,9,1,2.1628,,butterfly,anim_natural,1,scrambled,1,17,35,1,1,,,,,,
{{Xinyi}},2025-08-20_14h20.02.477,GLINT,2024.2.4,MacIntel,64.1025641,,,,,,,,,,,,,,,,,,,,dog,anim_natural,1,dog,corn,binoculars,airplane,train,butterfly,bread,cat,apple,1,1,2.9157,,dog,anim_natural,1,scrambled,2,0,36,4,1,,,,,,
{{Xinyi}},2025-08-20_14h20.02.477,GLINT,2024.2.4,MacIntel,64.1025641,,,,,,,,,,,,,,,,,,,,pineapple,inanim_natural,4,mushroom,cat,car,pineapple,lawnmower,train,apple,butterfly,dog,4,1,2.5198,,pineapple,inanim_natural,1,scrambled,2,1,37,8,1,,,,,,
{{Xinyi}},2025-08-20_14h20.02.477,GLINT,2024.2.4,MacIntel,64.1025641,,,,,,,,,,,,,,,,,,,,cow,anim_natural,3,binoculars,dog,cow,butterfly,corn,lawnmower,car,avocado,pineapple,2,0,2.0262,,dog,anim_natural,1,scrambled,2,2,38,3,1,,,,,,
{{Xinyi}},2025-08-20_14h20.02.477,GLINT,2024.2.4,MacIntel,64.1025641,,,,,,,,,,,,,,,,,,,,car,inanim_artificial,9,binoculars,snail,bear,butterfly,bread,airplane,pineapple,mushroom,car,9,1,2.2894,,car,inanim_artificial,1,scrambled,2,3,39,14,1,,,,,,
{{Xinyi}},2025-08-20_14h20.02.477,GLINT,2024.2.4,MacIntel,64.1025641,,,,,,,,,,,,,,,,,,,,lawnmower,inanim_artificial,9,cow,butterfly,airplane,binoculars,mushroom,apple,bread,dog,lawnmower,9,1,3.0294,,lawnmower,inanim_artificial,1,scrambled,2,4,40,16,1,,,,,,
{{Xinyi}},2025-08-20_14h20.02.477,GLINT,2024.2.4,MacIntel,64.1025641,,,,,,,,,,,,,,,,,,,,avocado,inanim_natural,9,pineapple,cat,car,train,snail,airplane,butterfly,bread,avocado,9,1,2.2599,,avocado,inanim_natural,1,scrambled,2,5,41,11,1,,,,,,
{{Xinyi}},2025-08-20_14h20.02.477,GLINT,2024.2.4,MacIntel,64.1025641,,,,,,,,,,,,,,,,,,,,binoculars,inanim_artificial,7,car,snail,pineapple,house,mushroom,dog,binoculars,cow,avocado,7,1,2.103,,binoculars,inanim_artificial,1,scrambled,2,6,42,13,1,,,,,,
{{Xinyi}},2025-08-20_14h20.02.477,GLINT,2024.2.4,MacIntel,64.1025641,,,,,,,,,,,,,,,,,,,,apple,inanim_natural,2,dog,apple,bear,snail,car,airplane,pineapple,bread,house,2,1,1.1163,,apple,inanim_natural,1,scrambled,2,7,43,9,1,,,,,,
{{Xinyi}},2025-08-20_14h20.02.477,GLINT,2024.2.4,MacIntel,64.1025641,,,,,,,,,,,,,,,,,,,,snail,anim_natural,8,train,apple,avocado,binoculars,house,butterfly,corn,snail,cat,8,1,2.4939,,snail,anim_natural,1,scrambled,2,8,44,5,1,,,,,,
{{Xinyi}},2025-08-20_14h20.02.477,GLINT,2024.2.4,MacIntel,64.1025641,,,,,,,,,,,,,,,,,,,,mushroom,inanim_natural,3,apple,cow,mushroom,corn,car,cat,dog,airplane,house,3,1,1.4192,,mushroom,inanim_natural,1,scrambled,2,9,45,7,1,,,,,,
{{Xinyi}},2025-08-20_14h20.02.477,GLINT,2024.2.4,MacIntel,64.1025641,,,,,,,,,,,,,,,,,,,,bear,anim_natural,8,avocado,car,cow,pineapple,airplane,binoculars,snail,bear,apple,8,1,2.9375,,bear,anim_natural,1,scrambled,2,10,46,0,1,,,,,,
{{Xinyi}},2025-08-20_14h20.02.477,GLINT,2024.2.4,MacIntel,64.1025641,,,,,,,,,,,,,,,,,,,,airplane,inanim_artificial,4,cow,bread,avocado,airplane,apple,dog,train,bear,car,4,1,1.7733,,airplane,inanim_artificial,1,scrambled,2,11,47,12,1,,,,,,
{{Xinyi}},2025-08-20_14h20.02.477,GLINT,2024.2.4,MacIntel,64.1025641,,,,,,,,,,,,,,,,,,,,train,inanim_artificial,4,house,apple,butterfly,train,lawnmower,corn,dog,bread,cat,4,1,1.8186,,train,inanim_artificial,1,scrambled,2,12,48,17,1,,,,,,
{{Xinyi}},2025-08-20_14h20.02.477,GLINT,2024.2.4,MacIntel,64.1025641,,,,,,,,,,,,,,,,,,,,butterfly,anim_natural,1,butterfly,corn,binoculars,car,house,pineapple,snail,bear,apple,1,1,1.5043,,butterfly,anim_natural,1,scrambled,2,13,49,1,1,,,,,,
{{Xinyi}},2025-08-20_14h20.02.477,GLINT,2024.2.4,MacIntel,64.1025641,,,,,,,,,,,,,,,,,,,,corn,inanim_natural,6,binoculars,car,bear,snail,house,corn,mushroom,pineapple,cow,6,1,1.8772,,corn,inanim_natural,1,scrambled,2,14,50,10,1,,,,,,
{{Xinyi}},2025-08-20_14h20.02.477,GLINT,2024.2.4,MacIntel,64.1025641,,,,,,,,,,,,,,,,,,,,house,inanim_artificial,7,apple,cat,corn,butterfly,bread,airplane,house,bear,lawnmower,7,1,2.3873,,house,inanim_artificial,1,scrambled,2,15,51,15,1,,,,,,
{{Xinyi}},2025-08-20_14h20.02.477,GLINT,2024.2.4,MacIntel,64.1025641,,,,,,,,,,,,,,,,,,,,bread,inanim_natural,5,house,pineapple,butterfly,apple,bread,cat,train,snail,airplane,5,1,1.913,,bread,inanim_natural,1,scrambled,2,16,52,6,1,,,,,,
{{Xinyi}},2025-08-20_14h20.02.477,GLINT,2024.2.4,MacIntel,64.1025641,,,,,,,,,,,,,,,,,,,,cat,anim_natural,3,apple,butterfly,cat,lawnmower,cow,mushroom,airplane,binoculars,corn,3,1,1.6262,,cat,anim_natural,1,scrambled,2,17,53,2,1,,,,,,
{{Xinyi}},2025-08-20_14h20.02.477,GLINT,2024.2.4,MacIntel,64.1025641,,,,,,,,,,,,,,,,,,,,dog,anim_natural,6,pineapple,butterfly,cow,house,mushroom,dog,train,apple,car,6,1,1.8307,,dog,anim_natural,1,scrambled,3,0,54,4,1,,,,,,
{{Xinyi}},2025-08-20_14h20.02.477,GLINT,2024.2.4,MacIntel,64.1025641,,,,,,,,,,,,,,,,,,,,snail,anim_natural,8,airplane,mushroom,bear,cow,bread,binoculars,train,snail,corn,8,1,2.0517,,snail,anim_natural,1,scrambled,3,1,55,5,1,,,,,,
{{Xinyi}},2025-08-20_14h20.02.477,GLINT,2024.2.4,MacIntel,64.1025641,,,,,,,,,,,,,,,,,,,,binoculars,inanim_artificial,3,bread,pineapple,binoculars,dog,butterfly,bear,airplane,mushroom,train,3,1,1.9768,,binoculars,inanim_artificial,1,scrambled,3,2,56,13,1,,,,,,
{{Xinyi}},2025-08-20_14h20.02.477,GLINT,2024.2.4,MacIntel,64.1025641,,,,,,,,,,,,,,,,,,,,cat,anim_natural,1,cat,car,bread,avocado,snail,apple,lawnmower,airplane,dog,1,1,2.2319,,cat,anim_natural,1,scrambled,3,3,57,2,1,,,,,,
{{Xinyi}},2025-08-20_14h20.02.477,GLINT,2024.2.4,MacIntel,64.1025641,,,,,,,,,,,,,,,,,,,,butterfly,anim_natural,3,pineapple,house,butterfly,snail,binoculars,cat,airplane,apple,corn,3,1,1.6843,,butterfly,anim_natural,1,scrambled,3,4,58,1,1,,,,,,
{{Xinyi}},2025-08-20_14h20.02.477,GLINT,2024.2.4,MacIntel,64.1025641,,,,,,,,,,,,,,,,,,,,train,inanim_artificial,3,house,airplane,train,bear,pineapple,corn,butterfly,dog,bread,3,1,3.0361,,train,inanim_artificial,1,scrambled,3,5,59,17,1,,,,,,
{{Xinyi}},2025-08-20_14h20.02.477,GLINT,2024.2.4,MacIntel,64.1025641,,,,,,,,,,,,,,,,,,,,corn,inanim_natural,7,pineapple,train,dog,snail,lawnmower,cow,corn,house,apple,7,1,3.1791,,corn,inanim_natural,1,scrambled,3,6,60,10,1,,,,,,
{{Xinyi}},2025-08-20_14h20.02.477,GLINT,2024.2.4,MacIntel,64.1025641,,,,,,,,,,,,,,,,,,,,car,inanim_artificial,6,bear,lawnmower,cat,bread,pineapple,car,train,corn,snail,6,1,2.439,,car,inanim_artificial,1,scrambled,3,7,61,14,1,,,,,,
{{Xinyi}},2025-08-20_14h20.02.477,GLINT,2024.2.4,MacIntel,64.1025641,,,,,,,,,,,,,,,,,,,,avocado,inanim_natural,8,binoculars,mushroom,cat,bear,house,apple,airplane,avocado,cow,8,1,1.8619,,avocado,inanim_natural,1,scrambled,3,8,62,11,1,,,,,,
{{Xinyi}},2025-08-20_14h20.02.477,GLINT,2024.2.4,MacIntel,64.1025641,,,,,,,,,,,,,,,,,,,,house,inanim_artificial,7,car,avocado,bear,airplane,dog,apple,house,butterfly,bread,7,1,2.7786,,house,inanim_artificial,1,scrambled,3,9,63,15,1,,,,,,
{{Xinyi}},2025-08-20_14h20.02.477,GLINT,2024.2.4,MacIntel,64.1025641,,,,,,,,,,,,,,,,,,,,mushroom,inanim_natural,7,lawnmower,pineapple,dog,binoculars,car,corn,mushroom,cat,butterfly,7,1,1.6712,,mushroom,inanim_natural,1,scrambled,3,10,64,7,1,,,,,,
{{Xinyi}},2025-08-20_14h20.02.477,GLINT,2024.2.4,MacIntel,64.1025641,,,,,,,,,,,,,,,,,,,,lawnmower,inanim_artificial,6,car,butterfly,bread,snail,mushroom,lawnmower,apple,train,dog,6,1,1.6345,,lawnmower,inanim_artificial,1,scrambled,3,11,65,16,1,,,,,,
{{Xinyi}},2025-08-20_14h20.02.477,GLINT,2024.2.4,MacIntel,64.1025641,,,,,,,,,,,,,,,,,,,,bear,anim_natural,1,bear,apple,dog,binoculars,cow,bread,mushroom,airplane,car,1,1,1.3329,,bear,anim_natural,1,scrambled,3,12,66,0,1,,,,,,
{{Xinyi}},2025-08-20_14h20.02.477,GLINT,2024.2.4,MacIntel,64.1025641,,,,,,,,,,,,,,,,,,,,pineapple,inanim_natural,9,snail,airplane,train,house,apple,butterfly,cat,mushroom,pineapple,9,1,1.5397,,pineapple,inanim_natural,1,scrambled,3,13,67,8,1,,,,,,
{{Xinyi}},2025-08-20_14h20.02.477,GLINT,2024.2.4,MacIntel,64.1025641,,,,,,,,,,,,,,,,,,,,apple,inanim_natural,4,dog,mushroom,cat,apple,binoculars,corn,house,lawnmower,snail,4,1,2.3195,,apple,inanim_natural,1,scrambled,3,14,68,9,1,,,,,,
{{Xinyi}},2025-08-20_14h20.02.477,GLINT,2024.2.4,MacIntel,64.1025641,,,,,,,,,,,,,,,,,,,,airplane,inanim_artificial,7,bread,dog,snail,car,corn,cow,airplane,apple,house,7,1,3.0668,,airplane,inanim_artificial,1,scrambled,3,15,69,12,1,,,,,,
{{Xinyi}},2025-08-20_14h20.02.477,GLINT,2024.2.4,MacIntel,64.1025641,,,,,,,,,,,,,,,,,,,,bread,inanim_natural,4,lawnmower,snail,house,bread,corn,apple,cat,bear,airplane,4,1,3.0804,,bread,inanim_natural,1,scrambled,3,16,70,6,1,,,,,,
{{Xinyi}},2025-08-20_14h20.02.477,GLINT,2024.2.4,MacIntel,64.1025641,,,,,,,,,,,,,,,,,,,,cow,anim_natural,1,cow,lawnmower,binoculars,corn,butterfly,bear,pineapple,airplane,bread,2,0,4.3458,,lawnmower,inanim_artificial,0,scrambled,3,17,71,3,1,,,,,,
{{Xinyi}},2025-08-20_14h20.02.477,GLINT,2024.2.4,MacIntel,64.1025641,,,,,,,,,,,,,,,,,,,,,,,,,,,,,,,,,,,,,,,,,,,,,0,2,2,2,1,scrambled
